subj,trial,rt,object_response,category,imagename,age,block,difficulty
18,1,3.2003,bicycle,bicycle,1111_eid_hum_0_bicycle_40_n03792782_1030.png,13.0,1,0
18,2,0.9337,cat,cat,1111_eid_hum_4_cat_40_n02123045_9341.png,13.0,1,4
18,3,1.7,keyboard,keyboard,1111_eid_hum_0_keyboard_40_n04505470_2570.png,13.0,1,0
18,4,0.934,bicycle,bicycle,1111_eid_hum_8_bicycle_40_n02835271_15038.png,13.0,1,8
18,5,0.7838,bird,bird,1111_eid_hum_4_bird_40_n01537544_2772.png,13.0,1,4
18,6,2.0502,boat,boat,1111_eid_hum_16_boat_40_n03344393_7433.png,13.0,1,16
18,7,4.8331,keyboard,keyboard,1111_eid_hum_16_keyboard_40_n03085013_19436.png,13.0,1,16
18,8,1.4005,truck,truck,1111_eid_hum_8_truck_40_n03417042_12486.png,13.0,1,8
18,9,0.8335,airplane,airplane,1111_eid_hum_16_airplane_40_n02690373_1161.png,13.0,1,16
18,10,0.9169,truck,truck,1111_eid_hum_8_truck_40_n03417042_14000.png,13.0,1,8
18,11,1.117,cat,cat,1111_eid_hum_8_cat_40_n02124075_3533.png,13.0,1,8
18,12,0.917,car,car,1111_eid_hum_0_car_40_n02814533_82925.png,13.0,1,0
18,13,2.6002,bottle,bottle,1111_eid_hum_16_bottle_40_n04560804_9813.png,13.0,1,16
18,14,1.734,boat,airplane,1111_eid_hum_16_airplane_40_n02690373_6853.png,13.0,1,16
18,15,1.1337,truck,truck,1111_eid_hum_8_truck_40_n03417042_10300.png,13.0,1,8
18,16,0.9669,bear,bear,1111_eid_hum_0_bear_40_n02134084_19407.png,13.0,1,0
18,17,3.2502,oven,oven,1111_eid_hum_4_oven_40_n04111531_1054.png,13.0,1,4
18,18,1.0506,airplane,airplane,1111_eid_hum_0_airplane_40_n02690373_6231.png,13.0,1,0
18,19,0.9006,knife,knife,1111_eid_hum_4_knife_40_n03041632_48071.png,13.0,1,4
18,20,1.2003,bicycle,bicycle,1111_eid_hum_4_bicycle_40_n03792782_14216.png,13.0,1,4
18,21,1.5505,boat,boat,1111_eid_hum_4_boat_40_n02951358_31835.png,13.0,2,4
18,22,1.6502,chair,chair,1111_eid_hum_4_chair_40_n04429376_9212.png,13.0,2,4
18,23,1.5502,bottle,bottle,1111_eid_hum_0_bottle_40_n04591713_6238.png,13.0,2,0
18,24,0.7170000000000001,bird,bird,1111_eid_hum_0_bird_40_n01818515_7890.png,13.0,2,0
18,25,2.1003,bicycle,bicycle,1111_eid_hum_16_bicycle_40_n03792782_692.png,13.0,2,16
18,26,7.1662,dog,knife,1111_eid_hum_8_knife_40_n03041632_47743.png,13.0,2,8
18,27,0.8337,cat,cat,1111_eid_hum_0_cat_40_n02123045_964.png,13.0,2,0
18,28,1.2839,elephant,elephant,1111_eid_hum_4_elephant_40_n02504013_8385.png,13.0,2,4
18,29,1.2506,boat,boat,1111_eid_hum_16_boat_40_n04273569_1141.png,13.0,2,16
18,30,0.8170000000000001,keyboard,keyboard,1111_eid_hum_8_keyboard_40_n03085013_4160.png,13.0,2,8
18,31,1.6168,bear,bear,1111_eid_hum_8_bear_40_n02134084_34728.png,13.0,2,8
18,32,0.8504,cat,cat,1111_eid_hum_0_cat_40_n02123159_3226.png,13.0,2,0
18,33,1.2502,truck,truck,1111_eid_hum_8_truck_40_n03796401_4495.png,13.0,2,8
18,34,5.5,clock,clock,1111_eid_hum_16_clock_40_n03196217_585.png,13.0,2,16
18,35,1.9169,cat,cat,1111_eid_hum_16_cat_40_n02124075_20957.png,13.0,2,16
18,36,1.1505,truck,truck,1111_eid_hum_8_truck_40_n03417042_1656.png,13.0,2,8
18,37,0.7004,bottle,bottle,1111_eid_hum_16_bottle_40_n03983396_4843.png,13.0,2,16
18,38,1.2504,bottle,bottle,1111_eid_hum_4_bottle_40_n04560804_15228.png,13.0,2,4
18,39,0.7672,knife,knife,1111_eid_hum_4_knife_40_n03041632_11475.png,13.0,2,4
18,40,0.6836,boat,boat,1111_eid_hum_0_boat_40_n04612504_8942.png,13.0,2,0
18,41,0.5005,knife,knife,1111_eid_hum_0_knife_40_n03041632_24277.png,13.0,3,0
18,42,0.8671,dog,dog,1111_eid_hum_4_dog_40_n02098105_1796.png,13.0,3,4
18,43,0.634,car,car,1111_eid_hum_4_car_40_n02814533_18458.png,13.0,3,4
18,44,0.767,elephant,elephant,1111_eid_hum_8_elephant_40_n02504458_3953.png,13.0,3,8
18,45,2.9001,bear,bear,1111_eid_hum_16_bear_40_n02134418_4886.png,13.0,3,16
18,46,1.0672,elephant,elephant,1111_eid_hum_16_elephant_40_n02504458_3140.png,13.0,3,16
18,47,2.0169,boat,boat,1111_eid_hum_4_boat_40_n02951358_32429.png,13.0,3,4
18,48,4.7996,boat,oven,1111_eid_hum_4_oven_40_n04111531_2930.png,13.0,3,4
18,49,2.4337,elephant,elephant,1111_eid_hum_16_elephant_40_n02504013_3141.png,13.0,3,16
18,50,4.2829,boat,airplane,1111_eid_hum_8_airplane_40_n02690373_5870.png,13.0,3,8
18,51,1.8171,airplane,chair,1111_eid_hum_16_chair_40_n04099969_13056.png,13.0,3,16
18,52,3.1661,dog,oven,1111_eid_hum_8_oven_40_n04111531_18592.png,13.0,3,8
18,53,0.7669,car,car,1111_eid_hum_16_car_40_n04285008_88.png,13.0,3,16
18,54,0.6004,bicycle,bicycle,1111_eid_hum_8_bicycle_40_n02835271_8081.png,13.0,3,8
18,55,0.617,bird,bird,1111_eid_hum_8_bird_40_n02033041_6633.png,13.0,3,8
18,56,0.4005,airplane,airplane,1111_eid_hum_0_airplane_40_n02690373_1277.png,13.0,3,0
18,57,0.6838,dog,dog,1111_eid_hum_0_dog_40_n02099712_5781.png,13.0,3,0
18,58,0.7337,chair,chair,1111_eid_hum_0_chair_40_n03376595_4469.png,13.0,3,0
18,59,1.3505,bear,bear,1111_eid_hum_4_bear_40_n02134418_703.png,13.0,3,4
18,60,0.8668,clock,clock,1111_eid_hum_0_clock_40_n04548280_7490.png,13.0,3,0
18,61,0.3168,clock,clock,1111_eid_hum_4_clock_40_n02708093_3459.png,13.0,4,4
18,62,0.9168,clock,clock,1111_eid_hum_0_clock_40_n03196217_4004.png,13.0,4,0
18,63,0.5339,elephant,elephant,1111_eid_hum_0_elephant_40_n02504458_1735.png,13.0,4,0
18,64,1.4839,oven,oven,1111_eid_hum_8_oven_40_n04111531_18645.png,13.0,4,8
18,65,1.95,knife,keyboard,1111_eid_hum_8_keyboard_40_n04505470_1833.png,13.0,4,8
18,66,0.9835,car,car,1111_eid_hum_8_car_40_n03100240_418.png,13.0,4,8
18,67,4.1329,dog,dog,1111_eid_hum_16_dog_40_n02110806_16707.png,13.0,4,16
18,68,0.6504,bear,bear,1111_eid_hum_0_bear_40_n02133161_1498.png,13.0,4,0
18,69,6.6663,cat,clock,1111_eid_hum_16_clock_40_n04548280_711.png,13.0,4,16
18,70,12.1322,bird,chair,1111_eid_hum_16_chair_40_n04429376_42324.png,13.0,4,16
18,71,0.4838,knife,knife,1111_eid_hum_8_knife_40_n03041632_25022.png,13.0,4,8
18,72,0.4504,dog,dog,1111_eid_hum_8_dog_40_n02108000_324.png,13.0,4,8
18,73,0.4505,chair,chair,1111_eid_hum_0_chair_40_n03376595_4309.png,13.0,4,0
18,74,0.7002,bird,bird,1111_eid_hum_4_bird_40_n01531178_8282.png,13.0,4,4
18,75,0.9336,car,car,1111_eid_hum_16_car_40_n02814533_89061.png,13.0,4,16
18,76,1.5499,bottle,bottle,1111_eid_hum_16_bottle_40_n04591713_2718.png,13.0,4,16
18,77,2.0498,dog,dog,1111_eid_hum_0_dog_40_n02090721_1456.png,13.0,4,0
18,78,2.2331,oven,oven,1111_eid_hum_4_oven_40_n04111531_11530.png,13.0,4,4
18,79,0.4836,keyboard,keyboard,1111_eid_hum_4_keyboard_40_n03085013_2122.png,13.0,4,4
18,80,1.25,bird,bird,1111_eid_hum_4_bird_40_n02007558_10725.png,13.0,4,4
18,81,0.5006,truck,truck,1111_eid_hum_4_truck_40_n03417042_10043.png,13.0,5,4
18,82,1.4665,knife,knife,1111_eid_hum_0_knife_40_n03041632_24114.png,13.0,5,0
18,83,0.8501,clock,clock,1111_eid_hum_0_clock_40_n03196217_4417.png,13.0,5,0
18,84,8.1994,bird,bottle,1111_eid_hum_16_bottle_40_n04591713_2024.png,13.0,5,16
18,85,0.7175,truck,truck,1111_eid_hum_0_truck_40_n04467665_11776.png,13.0,5,0
18,86,3.1335,bear,dog,1111_eid_hum_8_dog_40_n02102318_11816.png,13.0,5,8
18,87,1.8836,bottle,bottle,1111_eid_hum_8_bottle_40_n04560804_19872.png,13.0,5,8
18,88,1.6837,cat,cat,1111_eid_hum_16_cat_40_n02124075_862.png,13.0,5,16
18,89,0.7340000000000001,clock,clock,1111_eid_hum_0_clock_40_n03196217_3943.png,13.0,5,0
18,90,4.6833,cat,cat,1111_eid_hum_16_cat_40_n02123394_2690.png,13.0,5,16
18,91,0.767,boat,boat,1111_eid_hum_4_boat_40_n02951358_8194.png,13.0,5,4
18,92,2.3832,bear,bird,1111_eid_hum_8_bird_40_n01843383_8077.png,13.0,5,8
18,93,1.167,dog,cat,1111_eid_hum_16_cat_40_n02123597_5017.png,13.0,5,16
18,94,0.9505,cat,cat,1111_eid_hum_0_cat_40_n02123159_6505.png,13.0,5,0
18,95,4.4002,dog,dog,1111_eid_hum_8_dog_40_n02101556_7442.png,13.0,5,8
18,96,1.6838,truck,keyboard,1111_eid_hum_8_keyboard_40_n04505470_1430.png,13.0,5,8
18,97,1.3169,bird,bird,1111_eid_hum_16_bird_40_n01860187_6891.png,13.0,5,16
18,98,0.9169,clock,clock,1111_eid_hum_4_clock_40_n04548280_11068.png,13.0,5,4
18,99,0.5504,airplane,airplane,1111_eid_hum_4_airplane_40_n02690373_6999.png,13.0,5,4
18,100,0.8838,elephant,elephant,1111_eid_hum_4_elephant_40_n02504458_4.png,13.0,5,4
18,101,0.6506,airplane,airplane,1111_eid_hum_4_airplane_40_n02690373_1071.png,13.0,6,4
18,102,0.7169,boat,boat,1111_eid_hum_0_boat_40_n02951358_19768.png,13.0,6,0
18,103,1.1668,bottle,bottle,1111_eid_hum_4_bottle_40_n04560804_32398.png,13.0,6,4
18,104,3.1165,boat,knife,1111_eid_hum_16_knife_40_n03041632_3210.png,13.0,6,16
18,105,1.0506,truck,oven,1111_eid_hum_16_oven_40_n04111531_1229.png,13.0,6,16
18,106,0.667,truck,truck,1111_eid_hum_0_truck_40_n03417042_23440.png,13.0,6,0
18,107,0.9673,airplane,airplane,1111_eid_hum_8_airplane_40_n02690373_2024.png,13.0,6,8
18,108,8.4161,keyboard,keyboard,1111_eid_hum_16_keyboard_40_n04505470_2115.png,13.0,6,16
18,109,0.8174,boat,boat,1111_eid_hum_8_boat_40_n02951358_2853.png,13.0,6,8
18,110,0.8168,elephant,elephant,1111_eid_hum_0_elephant_40_n02504458_5561.png,13.0,6,0
18,111,0.6669,dog,dog,1111_eid_hum_16_dog_40_n02113624_1203.png,13.0,6,16
18,112,1.0338,car,car,1111_eid_hum_16_car_40_n04285008_2789.png,13.0,6,16
18,113,0.6673,elephant,elephant,1111_eid_hum_8_elephant_40_n02504458_7013.png,13.0,6,8
18,114,1.5835,clock,clock,1111_eid_hum_8_clock_40_n02708093_1431.png,13.0,6,8
18,115,0.6169,clock,clock,1111_eid_hum_0_clock_40_n04548280_2518.png,13.0,6,0
18,116,0.5169,car,car,1111_eid_hum_4_car_40_n03100240_6954.png,13.0,6,4
18,117,0.5669,keyboard,keyboard,1111_eid_hum_8_keyboard_40_n03085013_17762.png,13.0,6,8
18,118,0.4839,boat,boat,1111_eid_hum_0_boat_40_n02951358_15424.png,13.0,6,0
18,119,0.5338,airplane,airplane,1111_eid_hum_4_airplane_40_n02690373_18693.png,13.0,6,4
18,120,0.3673,chair,chair,1111_eid_hum_4_chair_40_n04099969_2267.png,13.0,6,4
18,121,5.7167,oven,knife,1111_eid_hum_4_knife_40_n03041632_4808.png,13.0,7,4
18,122,0.5335,elephant,elephant,1111_eid_hum_0_elephant_40_n02504458_4336.png,13.0,7,0
18,123,0.4002,elephant,elephant,1111_eid_hum_0_elephant_40_n02504013_6660.png,13.0,7,0
18,124,0.517,bicycle,bicycle,1111_eid_hum_0_bicycle_40_n03792782_23560.png,13.0,7,0
18,125,1.0004,chair,chair,1111_eid_hum_8_chair_40_n04429376_8395.png,13.0,7,8
18,126,1.8833,chair,chair,1111_eid_hum_8_chair_40_n02791124_9124.png,13.0,7,8
18,127,2.6169,cat,cat,1111_eid_hum_8_cat_40_n02124075_9716.png,13.0,7,8
18,128,1.317,bird,bear,1111_eid_hum_16_bear_40_n02132136_3169.png,13.0,7,16
18,129,2.5332,bicycle,bottle,1111_eid_hum_4_bottle_40_n02823428_7033.png,13.0,7,4
18,130,0.9337,bear,bear,1111_eid_hum_8_bear_40_n02134084_6343.png,13.0,7,8
18,131,6.3497,cat,bicycle,1111_eid_hum_16_bicycle_40_n02835271_276.png,13.0,7,16
18,132,1.5501,bird,oven,1111_eid_hum_16_oven_40_n04111531_21973.png,13.0,7,16
18,133,1.5669,boat,knife,1111_eid_hum_16_knife_40_n03041632_11797.png,13.0,7,16
18,134,1.8669,cat,bear,1111_eid_hum_16_bear_40_n02132136_1934.png,13.0,7,16
18,135,0.4336,chair,chair,1111_eid_hum_0_chair_40_n03376595_820.png,13.0,7,0
18,136,2.2671,bird,bird,1111_eid_hum_8_bird_40_n01537544_15048.png,13.0,7,8
18,137,9.8994,boat,dog,1111_eid_hum_4_dog_40_n02112018_370.png,13.0,7,4
18,138,0.6501,car,car,1111_eid_hum_4_car_40_n02814533_75974.png,13.0,7,4
18,139,1.7169,knife,knife,1111_eid_hum_4_knife_40_n03041632_14224.png,13.0,7,4
18,140,2.2169,bear,oven,1111_eid_hum_0_oven_40_n04111531_14611.png,13.0,7,0
21,1,0.7504,bird,bird,1111_eid_hum_4_bird_40_n01537544_2772.png,13.0,1,4
21,2,1.2339,car,car,1111_eid_hum_0_car_40_n02814533_82925.png,13.0,1,0
21,3,0.867,bicycle,bicycle,1111_eid_hum_0_bicycle_40_n03792782_1030.png,13.0,1,0
21,4,0.5004,airplane,airplane,1111_eid_hum_16_airplane_40_n02690373_1161.png,13.0,1,16
21,5,4.9497,cat,cat,1111_eid_hum_8_cat_40_n02124075_3533.png,13.0,1,8
21,6,0.767,truck,truck,1111_eid_hum_8_truck_40_n03417042_14000.png,13.0,1,8
21,7,2.167,cat,bottle,1111_eid_hum_16_bottle_40_n04560804_9813.png,13.0,1,16
21,8,0.5336,cat,cat,1111_eid_hum_4_cat_40_n02123045_9341.png,13.0,1,4
21,9,3.7336,oven,knife,1111_eid_hum_4_knife_40_n03041632_48071.png,13.0,1,4
21,10,3.167,keyboard,keyboard,1111_eid_hum_16_keyboard_40_n03085013_19436.png,13.0,1,16
21,11,1.6505,truck,truck,1111_eid_hum_8_truck_40_n03417042_10300.png,13.0,1,8
21,12,1.35,airplane,boat,1111_eid_hum_16_boat_40_n03344393_7433.png,13.0,1,16
21,13,1.4334,airplane,airplane,1111_eid_hum_16_airplane_40_n02690373_6853.png,13.0,1,16
21,14,2.8166,airplane,airplane,1111_eid_hum_0_airplane_40_n02690373_6231.png,13.0,1,0
21,15,0.6835,bicycle,bicycle,1111_eid_hum_8_bicycle_40_n02835271_15038.png,13.0,1,8
21,16,0.8671,truck,truck,1111_eid_hum_8_truck_40_n03417042_12486.png,13.0,1,8
21,17,0.8169,bear,bear,1111_eid_hum_0_bear_40_n02134084_19407.png,13.0,1,0
21,18,1.1505,bicycle,bicycle,1111_eid_hum_4_bicycle_40_n03792782_14216.png,13.0,1,4
21,19,0.8006,keyboard,keyboard,1111_eid_hum_0_keyboard_40_n04505470_2570.png,13.0,1,0
21,20,4.4333,bear,oven,1111_eid_hum_4_oven_40_n04111531_1054.png,13.0,1,4
21,21,0.6672,bird,bird,1111_eid_hum_0_bird_40_n01818515_7890.png,13.0,2,0
21,22,0.9007,bottle,bottle,1111_eid_hum_0_bottle_40_n04591713_6238.png,13.0,2,0
21,23,0.4172,cat,cat,1111_eid_hum_0_cat_40_n02123045_964.png,13.0,2,0
21,24,1.5666,knife,knife,1111_eid_hum_4_knife_40_n03041632_11475.png,13.0,2,4
21,25,1.0006,airplane,boat,1111_eid_hum_16_boat_40_n04273569_1141.png,13.0,2,16
21,26,0.8503,cat,cat,1111_eid_hum_16_cat_40_n02124075_20957.png,13.0,2,16
21,27,1.6171,cat,bicycle,1111_eid_hum_16_bicycle_40_n03792782_692.png,13.0,2,16
21,28,3.9997,boat,bottle,1111_eid_hum_16_bottle_40_n03983396_4843.png,13.0,2,16
21,29,0.8008,bear,bear,1111_eid_hum_8_bear_40_n02134084_34728.png,13.0,2,8
21,30,0.7007,keyboard,keyboard,1111_eid_hum_8_keyboard_40_n03085013_4160.png,13.0,2,8
21,31,1.4669999999999999,knife,knife,1111_eid_hum_8_knife_40_n03041632_47743.png,13.0,2,8
21,32,1.5507,boat,boat,1111_eid_hum_4_boat_40_n02951358_31835.png,13.0,2,4
21,33,0.7674,boat,boat,1111_eid_hum_0_boat_40_n04612504_8942.png,13.0,2,0
21,34,1.2005,keyboard,clock,1111_eid_hum_16_clock_40_n03196217_585.png,13.0,2,16
21,35,0.6506,truck,truck,1111_eid_hum_8_truck_40_n03417042_1656.png,13.0,2,8
21,36,0.8168,truck,truck,1111_eid_hum_8_truck_40_n03796401_4495.png,13.0,2,8
21,37,0.7669,elephant,elephant,1111_eid_hum_4_elephant_40_n02504013_8385.png,13.0,2,4
21,38,1.7168,chair,chair,1111_eid_hum_4_chair_40_n04429376_9212.png,13.0,2,4
21,39,0.6172,cat,cat,1111_eid_hum_0_cat_40_n02123159_3226.png,13.0,2,0
21,40,1.4836,bottle,bottle,1111_eid_hum_4_bottle_40_n04560804_15228.png,13.0,2,4
21,41,0.75,boat,boat,1111_eid_hum_4_boat_40_n02951358_32429.png,13.0,3,4
21,42,0.7337,car,car,1111_eid_hum_4_car_40_n02814533_18458.png,13.0,3,4
21,43,0.4007,chair,chair,1111_eid_hum_0_chair_40_n03376595_4469.png,13.0,3,0
21,44,1.6167,airplane,chair,1111_eid_hum_16_chair_40_n04099969_13056.png,13.0,3,16
21,45,0.4342,airplane,airplane,1111_eid_hum_0_airplane_40_n02690373_1277.png,13.0,3,0
21,46,3.4333,clock,elephant,1111_eid_hum_16_elephant_40_n02504013_3141.png,13.0,3,16
21,47,0.6672,bicycle,bicycle,1111_eid_hum_8_bicycle_40_n02835271_8081.png,13.0,3,8
21,48,0.4837,elephant,elephant,1111_eid_hum_16_elephant_40_n02504458_3140.png,13.0,3,16
21,49,3.2003,cat,car,1111_eid_hum_16_car_40_n04285008_88.png,13.0,3,16
21,50,4.1001,car,oven,1111_eid_hum_4_oven_40_n04111531_2930.png,13.0,3,4
21,51,9.9497,bicycle,bird,1111_eid_hum_8_bird_40_n02033041_6633.png,13.0,3,8
21,52,0.9005,elephant,elephant,1111_eid_hum_8_elephant_40_n02504458_3953.png,13.0,3,8
21,53,1.4833,elephant,bear,1111_eid_hum_16_bear_40_n02134418_4886.png,13.0,3,16
21,54,0.9174,bear,dog,1111_eid_hum_4_dog_40_n02098105_1796.png,13.0,3,4
21,55,0.7165,clock,clock,1111_eid_hum_0_clock_40_n04548280_7490.png,13.0,3,0
21,56,0.8171,boat,airplane,1111_eid_hum_8_airplane_40_n02690373_5870.png,13.0,3,8
21,57,1.7334,elephant,oven,1111_eid_hum_8_oven_40_n04111531_18592.png,13.0,3,8
21,58,1.0003,dog,dog,1111_eid_hum_0_dog_40_n02099712_5781.png,13.0,3,0
21,59,1.0668,knife,knife,1111_eid_hum_0_knife_40_n03041632_24277.png,13.0,3,0
21,60,1.0338,bear,bear,1111_eid_hum_4_bear_40_n02134418_703.png,13.0,3,4
21,61,0.8508,bird,bird,1111_eid_hum_4_bird_40_n02007558_10725.png,13.0,4,4
21,62,0.6004,clock,clock,1111_eid_hum_0_clock_40_n03196217_4004.png,13.0,4,0
21,63,0.3504,elephant,elephant,1111_eid_hum_0_elephant_40_n02504458_1735.png,13.0,4,0
21,64,0.3006,bear,bear,1111_eid_hum_0_bear_40_n02133161_1498.png,13.0,4,0
21,65,2.4838,bottle,chair,1111_eid_hum_16_chair_40_n04429376_42324.png,13.0,4,16
21,66,0.8006,bear,car,1111_eid_hum_16_car_40_n02814533_89061.png,13.0,4,16
21,67,0.5337,knife,knife,1111_eid_hum_8_knife_40_n03041632_25022.png,13.0,4,8
21,68,1.2669,dog,keyboard,1111_eid_hum_8_keyboard_40_n04505470_1833.png,13.0,4,8
21,69,0.4672,dog,dog,1111_eid_hum_8_dog_40_n02108000_324.png,13.0,4,8
21,70,0.8505,dog,dog,1111_eid_hum_16_dog_40_n02110806_16707.png,13.0,4,16
21,71,1.4673,bottle,bottle,1111_eid_hum_16_bottle_40_n04591713_2718.png,13.0,4,16
21,72,0.5004,bird,bird,1111_eid_hum_4_bird_40_n01531178_8282.png,13.0,4,4
21,73,2.4338,boat,car,1111_eid_hum_8_car_40_n03100240_418.png,13.0,4,8
21,74,1.1005,oven,oven,1111_eid_hum_8_oven_40_n04111531_18645.png,13.0,4,8
21,75,1.6668,oven,oven,1111_eid_hum_4_oven_40_n04111531_11530.png,13.0,4,4
21,76,0.4506,clock,clock,1111_eid_hum_4_clock_40_n02708093_3459.png,13.0,4,4
21,77,2.0694,bicycle,clock,1111_eid_hum_16_clock_40_n04548280_711.png,13.0,4,16
21,78,0.6171,keyboard,keyboard,1111_eid_hum_4_keyboard_40_n03085013_2122.png,13.0,4,4
21,79,0.9337,chair,chair,1111_eid_hum_0_chair_40_n03376595_4309.png,13.0,4,0
21,80,0.6168,dog,dog,1111_eid_hum_0_dog_40_n02090721_1456.png,13.0,4,0
21,81,0.7833,bottle,bottle,1111_eid_hum_0_bottle_40_n03937543_2357.png,13.0,8,0
21,82,0.3005,bicycle,bicycle,1111_eid_hum_0_bicycle_40_n03792782_47774.png,13.0,8,0
21,83,1.016,oven,oven,1111_eid_hum_0_oven_40_n04111531_10306.png,13.0,8,0
21,84,0.8337,car,car,1111_eid_hum_16_car_40_n04285008_9470.png,13.0,8,16
21,85,0.4337,dog,dog,1111_eid_hum_8_dog_40_n02088632_2814.png,13.0,8,8
21,86,0.7336,bear,bear,1111_eid_hum_16_bear_40_n02134084_5027.png,13.0,8,16
21,87,0.6836,dog,bear,1111_eid_hum_4_bear_40_n02134418_4041.png,13.0,8,4
21,88,0.5337,keyboard,keyboard,1111_eid_hum_4_keyboard_40_n03085013_24455.png,13.0,8,4
21,89,0.8001,chair,chair,1111_eid_hum_4_chair_40_n04429376_19101.png,13.0,8,4
21,90,0.7501,bicycle,bicycle,1111_eid_hum_8_bicycle_40_n03792782_3467.png,13.0,8,8
21,91,0.4171,bird,bird,1111_eid_hum_0_bird_40_n02037110_8732.png,13.0,8,0
21,92,0.9005,truck,truck,1111_eid_hum_16_truck_40_n03417042_19905.png,13.0,8,16
21,93,1.4839,keyboard,keyboard,1111_eid_hum_16_keyboard_40_n03085013_25181.png,13.0,8,16
21,94,1.4837,airplane,truck,1111_eid_hum_16_truck_40_n03417042_16389.png,13.0,8,16
21,95,1.4669,bicycle,boat,1111_eid_hum_8_boat_40_n02951358_34051.png,13.0,8,8
21,96,0.6672,bird,bird,1111_eid_hum_8_bird_40_n02009229_5962.png,13.0,8,8
21,97,0.8170000000000001,car,car,1111_eid_hum_8_car_40_n04285008_3280.png,13.0,8,8
21,98,0.5674,airplane,airplane,1111_eid_hum_4_airplane_40_n02690373_4728.png,13.0,8,4
21,99,0.6338,bicycle,bicycle,1111_eid_hum_0_bicycle_40_n02835271_13131.png,13.0,8,0
21,100,1.2508,oven,oven,1111_eid_hum_4_oven_40_n04111531_15649.png,13.0,8,4
21,101,0.8340000000000001,knife,knife,1111_eid_hum_0_knife_40_n03041632_24114.png,13.0,5,0
21,102,0.9670000000000001,clock,clock,1111_eid_hum_0_clock_40_n03196217_3943.png,13.0,5,0
21,103,0.4673,cat,cat,1111_eid_hum_0_cat_40_n02123159_6505.png,13.0,5,0
21,104,0.4507,cat,cat,1111_eid_hum_16_cat_40_n02124075_862.png,13.0,5,16
21,105,1.2668,truck,truck,1111_eid_hum_0_truck_40_n04467665_11776.png,13.0,5,0
21,106,0.7337,elephant,elephant,1111_eid_hum_4_elephant_40_n02504458_4.png,13.0,5,4
21,107,2.3503,cat,bottle,1111_eid_hum_16_bottle_40_n04591713_2024.png,13.0,5,16
21,108,1.6669,bottle,bottle,1111_eid_hum_8_bottle_40_n04560804_19872.png,13.0,5,8
21,109,0.8841,dog,cat,1111_eid_hum_16_cat_40_n02123394_2690.png,13.0,5,16
21,110,0.6337,dog,dog,1111_eid_hum_8_dog_40_n02102318_11816.png,13.0,5,8
21,111,2.617,boat,bird,1111_eid_hum_16_bird_40_n01860187_6891.png,13.0,5,16
21,112,0.6169,boat,boat,1111_eid_hum_4_boat_40_n02951358_8194.png,13.0,5,4
21,113,0.9668,chair,keyboard,1111_eid_hum_8_keyboard_40_n04505470_1430.png,13.0,5,8
21,114,1.5832,dog,cat,1111_eid_hum_16_cat_40_n02123597_5017.png,13.0,5,16
21,115,0.9506,bird,bird,1111_eid_hum_8_bird_40_n01843383_8077.png,13.0,5,8
21,116,0.8008,dog,dog,1111_eid_hum_8_dog_40_n02101556_7442.png,13.0,5,8
21,117,0.6338,airplane,airplane,1111_eid_hum_4_airplane_40_n02690373_6999.png,13.0,5,4
21,118,0.6672,clock,clock,1111_eid_hum_0_clock_40_n03196217_4417.png,13.0,5,0
21,119,0.7173,clock,clock,1111_eid_hum_4_clock_40_n04548280_11068.png,13.0,5,4
21,120,0.8003,truck,truck,1111_eid_hum_4_truck_40_n03417042_10043.png,13.0,5,4
21,121,0.4163,airplane,airplane,1111_eid_hum_4_airplane_40_n02690373_1071.png,13.0,6,4
21,122,0.4504,airplane,airplane,1111_eid_hum_4_airplane_40_n02690373_18693.png,13.0,6,4
21,123,0.3508,truck,truck,1111_eid_hum_0_truck_40_n03417042_23440.png,13.0,6,0
21,124,0.4506,clock,clock,1111_eid_hum_0_clock_40_n04548280_2518.png,13.0,6,0
21,125,1.1838,bottle,bottle,1111_eid_hum_4_bottle_40_n04560804_32398.png,13.0,6,4
21,126,0.534,dog,dog,1111_eid_hum_16_dog_40_n02113624_1203.png,13.0,6,16
21,127,0.5002,clock,clock,1111_eid_hum_8_clock_40_n02708093_1431.png,13.0,6,8
21,128,0.6668,airplane,airplane,1111_eid_hum_8_airplane_40_n02690373_2024.png,13.0,6,8
21,129,0.4334,elephant,elephant,1111_eid_hum_8_elephant_40_n02504458_7013.png,13.0,6,8
21,130,0.9674,keyboard,keyboard,1111_eid_hum_16_keyboard_40_n04505470_2115.png,13.0,6,16
21,131,1.2505,keyboard,car,1111_eid_hum_16_car_40_n04285008_2789.png,13.0,6,16
21,132,0.4673,boat,boat,1111_eid_hum_0_boat_40_n02951358_19768.png,13.0,6,0
21,133,0.9505,boat,boat,1111_eid_hum_0_boat_40_n02951358_15424.png,13.0,6,0
21,134,1.0669,car,oven,1111_eid_hum_16_oven_40_n04111531_1229.png,13.0,6,16
21,135,0.5007,keyboard,keyboard,1111_eid_hum_8_keyboard_40_n03085013_17762.png,13.0,6,8
21,136,0.5837,boat,boat,1111_eid_hum_8_boat_40_n02951358_2853.png,13.0,6,8
21,137,3.5,bear,knife,1111_eid_hum_16_knife_40_n03041632_3210.png,13.0,6,16
21,138,0.5504,chair,chair,1111_eid_hum_4_chair_40_n04099969_2267.png,13.0,6,4
21,139,0.4173,car,car,1111_eid_hum_4_car_40_n03100240_6954.png,13.0,6,4
21,140,0.4506,elephant,elephant,1111_eid_hum_0_elephant_40_n02504458_5561.png,13.0,6,0
21,141,0.2836,elephant,elephant,1111_eid_hum_0_elephant_40_n02504013_6660.png,13.0,7,0
21,142,0.4005,car,car,1111_eid_hum_4_car_40_n02814533_75974.png,13.0,7,4
21,143,2.7333,car,oven,1111_eid_hum_0_oven_40_n04111531_14611.png,13.0,7,0
21,144,5.8497,bicycle,bottle,1111_eid_hum_4_bottle_40_n02823428_7033.png,13.0,7,4
21,145,1.1838,knife,knife,1111_eid_hum_4_knife_40_n03041632_4808.png,13.0,7,4
21,146,2.1338,boat,bicycle,1111_eid_hum_16_bicycle_40_n02835271_276.png,13.0,7,16
21,147,3.3833,bird,bear,1111_eid_hum_16_bear_40_n02132136_3169.png,13.0,7,16
21,148,0.45,bicycle,bicycle,1111_eid_hum_0_bicycle_40_n03792782_23560.png,13.0,7,0
21,149,1.0167,bird,bird,1111_eid_hum_8_bird_40_n01537544_15048.png,13.0,7,8
21,150,2.616,car,knife,1111_eid_hum_16_knife_40_n03041632_11797.png,13.0,7,16
21,151,1.7835,bear,bear,1111_eid_hum_16_bear_40_n02132136_1934.png,13.0,7,16
21,152,1.2336,elephant,elephant,1111_eid_hum_0_elephant_40_n02504458_4336.png,13.0,7,0
21,153,0.767,cat,cat,1111_eid_hum_8_cat_40_n02124075_9716.png,13.0,7,8
21,154,1.5836,airplane,oven,1111_eid_hum_16_oven_40_n04111531_21973.png,13.0,7,16
21,155,1.8505,oven,chair,1111_eid_hum_8_chair_40_n02791124_9124.png,13.0,7,8
21,156,0.7839,bear,bear,1111_eid_hum_8_bear_40_n02134084_6343.png,13.0,7,8
21,157,0.5183,chair,chair,1111_eid_hum_8_chair_40_n04429376_8395.png,13.0,7,8
21,158,0.7506,chair,chair,1111_eid_hum_0_chair_40_n03376595_820.png,13.0,7,0
21,159,0.6172,knife,knife,1111_eid_hum_4_knife_40_n03041632_14224.png,13.0,7,4
21,160,0.9001,dog,dog,1111_eid_hum_4_dog_40_n02112018_370.png,13.0,7,4
21,161,0.4837,truck,truck,1111_eid_hum_4_truck_40_n04467665_50932.png,13.0,9,4
21,162,0.6506,bottle,bottle,1111_eid_hum_0_bottle_40_n04591713_7221.png,13.0,9,0
21,163,0.4671,bicycle,bicycle,1111_eid_hum_4_bicycle_40_n03792782_3631.png,13.0,9,4
21,164,0.4668,cat,cat,1111_eid_hum_0_cat_40_n02123045_2025.png,13.0,9,0
21,165,1.2503,chair,chair,1111_eid_hum_8_chair_40_n02791124_2470.png,13.0,9,8
21,166,0.8337,cat,cat,1111_eid_hum_4_cat_40_n02124075_8351.png,13.0,9,4
21,167,1.3002,dog,airplane,1111_eid_hum_16_airplane_40_n02690373_8789.png,13.0,9,16
21,168,0.6173,bird,bird,1111_eid_hum_0_bird_40_n02027492_2004.png,13.0,9,0
21,169,1.1005,oven,oven,1111_eid_hum_8_oven_40_n04111531_13247.png,13.0,9,8
21,170,1.6334,clock,keyboard,1111_eid_hum_16_keyboard_40_n03085013_24577.png,13.0,9,16
21,171,0.4336,keyboard,keyboard,1111_eid_hum_0_keyboard_40_n04505470_3947.png,13.0,9,0
21,172,2.4172,elephant,oven,1111_eid_hum_8_oven_40_n04111531_9712.png,13.0,9,8
21,173,2.9833,bear,knife,1111_eid_hum_16_knife_40_n03041632_32785.png,13.0,9,16
21,174,1.8332,elephant,elephant,1111_eid_hum_16_elephant_40_n02504013_868.png,13.0,9,16
21,175,0.4169,bicycle,bicycle,1111_eid_hum_8_bicycle_40_n03792782_52601.png,13.0,9,8
21,176,1.7338,oven,oven,1111_eid_hum_8_oven_40_n04111531_4.png,13.0,9,8
21,177,1.1337,truck,truck,1111_eid_hum_16_truck_40_n03796401_15756.png,13.0,9,16
21,178,0.3666,car,car,1111_eid_hum_0_car_40_n02814533_83068.png,13.0,9,0
21,179,0.5838,car,car,1111_eid_hum_4_car_40_n02814533_32461.png,13.0,9,4
21,180,0.3669,cat,cat,1111_eid_hum_4_cat_40_n02123394_2364.png,13.0,9,4
21,181,0.7337,boat,boat,1111_eid_hum_4_boat_40_n04612504_7166.png,13.0,10,4
21,182,0.8338,elephant,elephant,1111_eid_hum_4_elephant_40_n02504458_1998.png,13.0,10,4
21,183,0.7172,dog,dog,1111_eid_hum_0_dog_40_n02112706_2952.png,13.0,10,0
21,184,0.4838,bicycle,bicycle,1111_eid_hum_4_bicycle_40_n02835271_8273.png,13.0,10,4
21,185,0.6341,dog,dog,1111_eid_hum_16_dog_40_n02107142_1550.png,13.0,10,16
21,186,0.9673,bottle,bottle,1111_eid_hum_8_bottle_40_n04560804_11601.png,13.0,10,8
21,187,1.3838,dog,boat,1111_eid_hum_8_boat_40_n04273569_13091.png,13.0,10,8
21,188,0.7004,bird,bird,1111_eid_hum_0_bird_40_n01530575_4260.png,13.0,10,0
21,189,0.4502,bird,bird,1111_eid_hum_4_bird_40_n02018795_11949.png,13.0,10,4
21,190,2.0504,oven,oven,1111_eid_hum_16_oven_40_n04111531_23215.png,13.0,10,16
21,191,1.1498,knife,knife,1111_eid_hum_8_knife_40_n03041632_17338.png,13.0,10,8
21,192,1.5006,clock,elephant,1111_eid_hum_16_elephant_40_n02504013_10462.png,13.0,10,16
21,193,0.5675,car,car,1111_eid_hum_8_car_40_n04285008_10287.png,13.0,10,8
21,194,0.7838,dog,dog,1111_eid_hum_16_dog_40_n02096437_6439.png,13.0,10,16
21,195,1.4006,oven,oven,1111_eid_hum_4_oven_40_n04111531_10011.png,13.0,10,4
21,196,1.117,bottle,bottle,1111_eid_hum_8_bottle_40_n04591713_5754.png,13.0,10,8
21,197,0.8169,clock,clock,1111_eid_hum_16_clock_40_n03196217_8614.png,13.0,10,16
21,198,0.7502,dog,dog,1111_eid_hum_0_dog_40_n02097130_1834.png,13.0,10,0
21,199,0.7336,bear,bear,1111_eid_hum_0_bear_40_n02132136_5184.png,13.0,10,0
21,200,0.5338,boat,boat,1111_eid_hum_0_boat_40_n04612504_30742.png,13.0,10,0
21,201,0.4337,bird,bird,1111_eid_hum_4_bird_40_n02025239_22501.png,13.0,11,4
21,202,1.4504,bottle,bottle,1111_eid_hum_4_bottle_40_n04560804_13773.png,13.0,11,4
21,203,0.6173,knife,knife,1111_eid_hum_4_knife_40_n03041632_26340.png,13.0,11,4
21,204,0.5503,airplane,airplane,1111_eid_hum_0_airplane_40_n02690373_4243.png,13.0,11,0
21,205,0.6338,truck,truck,1111_eid_hum_4_truck_40_n04467665_1077.png,13.0,11,4
21,206,0.7006,clock,clock,1111_eid_hum_8_clock_40_n02708093_462.png,13.0,11,8
21,207,0.5505,elephant,elephant,1111_eid_hum_8_elephant_40_n02504458_1848.png,13.0,11,8
21,208,1.1838,cat,chair,1111_eid_hum_16_chair_40_n04429376_3620.png,13.0,11,16
21,209,1.3339,boat,boat,1111_eid_hum_16_boat_40_n02951358_4826.png,13.0,11,16
21,210,1.6501,clock,bicycle,1111_eid_hum_16_bicycle_40_n03792782_3047.png,13.0,11,16
21,211,0.6173,boat,boat,1111_eid_hum_8_boat_40_n03344393_302.png,13.0,11,8
21,212,1.4168,elephant,dog,1111_eid_hum_16_dog_40_n02100877_20916.png,13.0,11,16
21,213,0.617,airplane,airplane,1111_eid_hum_8_airplane_40_n02690373_1837.png,13.0,11,8
21,214,1.2336,car,chair,1111_eid_hum_8_chair_40_n02791124_141.png,13.0,11,8
21,215,0.6838,bear,bear,1111_eid_hum_0_bear_40_n02132136_6787.png,13.0,11,0
21,216,0.4173,keyboard,keyboard,1111_eid_hum_0_keyboard_40_n03085013_1483.png,13.0,11,0
21,217,2.117,boat,bird,1111_eid_hum_16_bird_40_n02037110_11551.png,13.0,11,16
21,218,0.4337,clock,clock,1111_eid_hum_4_clock_40_n04548280_1438.png,13.0,11,4
21,219,0.4002,airplane,airplane,1111_eid_hum_0_airplane_40_n02690373_19152.png,13.0,11,0
21,220,0.4838,bear,bear,1111_eid_hum_0_bear_40_n02132136_11149.png,13.0,11,0
24,1,3.7835,elephant,bear,1111_eid_hum_0_bear_40_n02134084_19407.png,13.0,1,0
24,2,21.0976,cat,oven,1111_eid_hum_4_oven_40_n04111531_1054.png,13.0,1,4
24,3,0.9006,cat,cat,1111_eid_hum_4_cat_40_n02123045_9341.png,13.0,1,4
24,4,2.2334,boat,boat,1111_eid_hum_16_boat_40_n03344393_7433.png,13.0,1,16
24,5,0.5838,airplane,airplane,1111_eid_hum_16_airplane_40_n02690373_1161.png,13.0,1,16
24,6,2.2335,truck,truck,1111_eid_hum_8_truck_40_n03417042_10300.png,13.0,1,8
24,7,1.0669,bicycle,bicycle,1111_eid_hum_0_bicycle_40_n03792782_1030.png,13.0,1,0
24,8,1.4003,truck,truck,1111_eid_hum_8_truck_40_n03417042_12486.png,13.0,1,8
24,9,8.1665,bicycle,bottle,1111_eid_hum_16_bottle_40_n04560804_9813.png,13.0,1,16
24,10,0.3669,airplane,airplane,1111_eid_hum_0_airplane_40_n02690373_6231.png,13.0,1,0
24,11,5.3996,car,airplane,1111_eid_hum_16_airplane_40_n02690373_6853.png,13.0,1,16
24,12,0.4666,cat,cat,1111_eid_hum_8_cat_40_n02124075_3533.png,13.0,1,8
24,13,8.1994,keyboard,knife,1111_eid_hum_4_knife_40_n03041632_48071.png,13.0,1,4
24,14,0.617,bicycle,bicycle,1111_eid_hum_8_bicycle_40_n02835271_15038.png,13.0,1,8
24,15,1.2838,keyboard,keyboard,1111_eid_hum_16_keyboard_40_n03085013_19436.png,13.0,1,16
24,16,1.1337,keyboard,keyboard,1111_eid_hum_0_keyboard_40_n04505470_2570.png,13.0,1,0
24,17,0.5339,truck,truck,1111_eid_hum_8_truck_40_n03417042_14000.png,13.0,1,8
24,18,0.5336,bicycle,bicycle,1111_eid_hum_4_bicycle_40_n03792782_14216.png,13.0,1,4
24,19,0.6673,car,car,1111_eid_hum_0_car_40_n02814533_82925.png,13.0,1,0
24,20,1.6669999999999998,bird,bird,1111_eid_hum_4_bird_40_n01537544_2772.png,13.0,1,4
24,21,2.3003,bottle,bottle,1111_eid_hum_4_bottle_40_n04560804_15228.png,13.0,2,4
24,22,0.4506,bird,bird,1111_eid_hum_0_bird_40_n01818515_7890.png,13.0,2,0
24,23,7.2663,bicycle,boat,1111_eid_hum_4_boat_40_n02951358_31835.png,13.0,2,4
24,24,1.3668,chair,chair,1111_eid_hum_4_chair_40_n04429376_9212.png,13.0,2,4
24,25,12.3824,clock,clock,1111_eid_hum_16_clock_40_n03196217_585.png,13.0,2,16
24,26,0.6499,bicycle,bicycle,1111_eid_hum_16_bicycle_40_n03792782_692.png,13.0,2,16
24,27,3.6334,knife,knife,1111_eid_hum_8_knife_40_n03041632_47743.png,13.0,2,8
24,28,1.0837,truck,truck,1111_eid_hum_8_truck_40_n03417042_1656.png,13.0,2,8
24,29,0.4507,cat,cat,1111_eid_hum_16_cat_40_n02124075_20957.png,13.0,2,16
24,30,0.4336,cat,cat,1111_eid_hum_0_cat_40_n02123045_964.png,13.0,2,0
24,31,1.5501,cat,bear,1111_eid_hum_8_bear_40_n02134084_34728.png,13.0,2,8
24,32,4.4334,clock,bottle,1111_eid_hum_16_bottle_40_n03983396_4843.png,13.0,2,16
24,33,0.5173,keyboard,keyboard,1111_eid_hum_8_keyboard_40_n03085013_4160.png,13.0,2,8
24,34,7.733,bear,boat,1111_eid_hum_16_boat_40_n04273569_1141.png,13.0,2,16
24,35,0.5505,truck,truck,1111_eid_hum_8_truck_40_n03796401_4495.png,13.0,2,8
24,36,0.5168,boat,boat,1111_eid_hum_0_boat_40_n04612504_8942.png,13.0,2,0
24,37,0.5841,knife,knife,1111_eid_hum_4_knife_40_n03041632_11475.png,13.0,2,4
24,38,0.4837,elephant,elephant,1111_eid_hum_4_elephant_40_n02504013_8385.png,13.0,2,4
24,39,1.8007,bottle,bottle,1111_eid_hum_0_bottle_40_n04591713_6238.png,13.0,2,0
24,40,0.4005,cat,cat,1111_eid_hum_0_cat_40_n02123159_3226.png,13.0,2,0
24,41,0.3005,airplane,airplane,1111_eid_hum_0_airplane_40_n02690373_1277.png,13.0,3,0
24,42,0.6001,knife,knife,1111_eid_hum_0_knife_40_n03041632_24277.png,13.0,3,0
24,43,2.6501,boat,boat,1111_eid_hum_4_boat_40_n02951358_32429.png,13.0,3,4
24,44,0.517,bicycle,bicycle,1111_eid_hum_8_bicycle_40_n02835271_8081.png,13.0,3,8
24,45,0.8837,elephant,elephant,1111_eid_hum_16_elephant_40_n02504458_3140.png,13.0,3,16
24,46,0.867,bird,bird,1111_eid_hum_8_bird_40_n02033041_6633.png,13.0,3,8
24,47,11.5323,bear,oven,1111_eid_hum_4_oven_40_n04111531_2930.png,13.0,3,4
24,48,0.6505,elephant,elephant,1111_eid_hum_8_elephant_40_n02504458_3953.png,13.0,3,8
24,49,1.3173,boat,car,1111_eid_hum_16_car_40_n04285008_88.png,13.0,3,16
24,50,6.1829,knife,chair,1111_eid_hum_16_chair_40_n04099969_13056.png,13.0,3,16
24,51,0.5171,chair,chair,1111_eid_hum_0_chair_40_n03376595_4469.png,13.0,3,0
24,52,1.4331,boat,airplane,1111_eid_hum_8_airplane_40_n02690373_5870.png,13.0,3,8
24,53,0.4005,car,car,1111_eid_hum_4_car_40_n02814533_18458.png,13.0,3,4
24,54,0.4507,bear,bear,1111_eid_hum_4_bear_40_n02134418_703.png,13.0,3,4
24,55,4.2332,dog,oven,1111_eid_hum_8_oven_40_n04111531_18592.png,13.0,3,8
24,56,9.0827,oven,elephant,1111_eid_hum_16_elephant_40_n02504013_3141.png,13.0,3,16
24,57,7.2501,clock,bear,1111_eid_hum_16_bear_40_n02134418_4886.png,13.0,3,16
24,58,0.8503,clock,clock,1111_eid_hum_0_clock_40_n04548280_7490.png,13.0,3,0
24,59,0.7505,dog,dog,1111_eid_hum_0_dog_40_n02099712_5781.png,13.0,3,0
24,60,0.7338,dog,dog,1111_eid_hum_4_dog_40_n02098105_1796.png,13.0,3,4
24,61,0.2505,keyboard,keyboard,1111_eid_hum_4_keyboard_40_n03085013_2122.png,13.0,4,4
24,62,0.4004,chair,chair,1111_eid_hum_0_chair_40_n03376595_4309.png,13.0,4,0
24,63,0.2836,clock,clock,1111_eid_hum_4_clock_40_n02708093_3459.png,13.0,4,4
24,64,0.4006,car,car,1111_eid_hum_8_car_40_n03100240_418.png,13.0,4,8
24,65,2.3668,oven,oven,1111_eid_hum_8_oven_40_n04111531_18645.png,13.0,4,8
24,66,0.3167,car,car,1111_eid_hum_16_car_40_n02814533_89061.png,13.0,4,16
24,67,0.6337,keyboard,keyboard,1111_eid_hum_8_keyboard_40_n04505470_1833.png,13.0,4,8
24,68,5.5497,chair,clock,1111_eid_hum_16_clock_40_n04548280_711.png,13.0,4,16
24,69,0.9338,bird,bird,1111_eid_hum_4_bird_40_n02007558_10725.png,13.0,4,4
24,70,6.8166,oven,chair,1111_eid_hum_16_chair_40_n04429376_42324.png,13.0,4,16
24,71,0.4336,knife,knife,1111_eid_hum_8_knife_40_n03041632_25022.png,13.0,4,8
24,72,0.2671,dog,dog,1111_eid_hum_8_dog_40_n02108000_324.png,13.0,4,8
24,73,0.2172,bear,bear,1111_eid_hum_0_bear_40_n02133161_1498.png,13.0,4,0
24,74,3.8996,dog,dog,1111_eid_hum_16_dog_40_n02110806_16707.png,13.0,4,16
24,75,4.0999,clock,clock,1111_eid_hum_0_clock_40_n03196217_4004.png,13.0,4,0
24,76,2.5835,oven,oven,1111_eid_hum_4_oven_40_n04111531_11530.png,13.0,4,4
24,77,5.4997,bottle,bottle,1111_eid_hum_16_bottle_40_n04591713_2718.png,13.0,4,16
24,78,0.6837,elephant,elephant,1111_eid_hum_0_elephant_40_n02504458_1735.png,13.0,4,0
24,79,0.6836,dog,dog,1111_eid_hum_0_dog_40_n02090721_1456.png,13.0,4,0
24,80,0.5172,bird,bird,1111_eid_hum_4_bird_40_n01531178_8282.png,13.0,4,4
24,81,0.5173,bicycle,bicycle,1111_eid_hum_0_bicycle_40_n02835271_13131.png,13.0,8,0
24,82,0.9001,keyboard,chair,1111_eid_hum_4_chair_40_n04429376_19101.png,13.0,8,4
24,83,0.5006,keyboard,keyboard,1111_eid_hum_4_keyboard_40_n03085013_24455.png,13.0,8,4
24,84,0.4337,car,car,1111_eid_hum_8_car_40_n04285008_3280.png,13.0,8,8
24,85,0.2841,bicycle,bicycle,1111_eid_hum_8_bicycle_40_n03792782_3467.png,13.0,8,8
24,86,0.4343,bird,bird,1111_eid_hum_8_bird_40_n02009229_5962.png,13.0,8,8
24,87,0.617,airplane,airplane,1111_eid_hum_4_airplane_40_n02690373_4728.png,13.0,8,4
24,88,0.2505,bicycle,bicycle,1111_eid_hum_0_bicycle_40_n03792782_47774.png,13.0,8,0
24,89,1.1173,boat,boat,1111_eid_hum_8_boat_40_n02951358_34051.png,13.0,8,8
24,90,0.6507,bear,bear,1111_eid_hum_16_bear_40_n02134084_5027.png,13.0,8,16
24,91,3.4165,car,truck,1111_eid_hum_16_truck_40_n03417042_19905.png,13.0,8,16
24,92,0.8338,bottle,bottle,1111_eid_hum_0_bottle_40_n03937543_2357.png,13.0,8,0
24,93,1.2998,bird,truck,1111_eid_hum_16_truck_40_n03417042_16389.png,13.0,8,16
24,94,9.0497,elephant,car,1111_eid_hum_16_car_40_n04285008_9470.png,13.0,8,16
24,95,0.7674,dog,dog,1111_eid_hum_8_dog_40_n02088632_2814.png,13.0,8,8
24,96,0.5336,keyboard,keyboard,1111_eid_hum_16_keyboard_40_n03085013_25181.png,13.0,8,16
24,97,2.4336,oven,oven,1111_eid_hum_0_oven_40_n04111531_10306.png,13.0,8,0
24,98,1.1003,bear,bear,1111_eid_hum_4_bear_40_n02134418_4041.png,13.0,8,4
24,99,0.4835,bird,bird,1111_eid_hum_0_bird_40_n02037110_8732.png,13.0,8,0
24,100,5.4333,bird,oven,1111_eid_hum_4_oven_40_n04111531_15649.png,13.0,8,4
24,101,22.1644,clock,clock,1111_eid_hum_0_clock_40_n03196217_4417.png,13.0,5,0
24,102,0.4841,boat,boat,1111_eid_hum_4_boat_40_n02951358_8194.png,13.0,5,4
24,103,0.8337,knife,knife,1111_eid_hum_0_knife_40_n03041632_24114.png,13.0,5,0
24,104,0.6838,dog,dog,1111_eid_hum_8_dog_40_n02102318_11816.png,13.0,5,8
24,105,0.4004,elephant,elephant,1111_eid_hum_4_elephant_40_n02504458_4.png,13.0,5,4
24,106,1.0836,bottle,bottle,1111_eid_hum_8_bottle_40_n04560804_19872.png,13.0,5,8
24,107,12.3489,oven,bottle,1111_eid_hum_16_bottle_40_n04591713_2024.png,13.0,5,16
24,108,0.9007,dog,dog,1111_eid_hum_8_dog_40_n02101556_7442.png,13.0,5,8
24,109,0.4002,cat,cat,1111_eid_hum_16_cat_40_n02123394_2690.png,13.0,5,16
24,110,1.0503,keyboard,keyboard,1111_eid_hum_8_keyboard_40_n04505470_1430.png,13.0,5,8
24,111,0.5166,truck,truck,1111_eid_hum_4_truck_40_n03417042_10043.png,13.0,5,4
24,112,1.9338,bottle,cat,1111_eid_hum_16_cat_40_n02123597_5017.png,13.0,5,16
24,113,0.6169,clock,clock,1111_eid_hum_4_clock_40_n04548280_11068.png,13.0,5,4
24,114,0.9339,bird,bird,1111_eid_hum_16_bird_40_n01860187_6891.png,13.0,5,16
24,115,8.2332,bird,bird,1111_eid_hum_8_bird_40_n01843383_8077.png,13.0,5,8
24,116,0.3670000000000001,cat,cat,1111_eid_hum_16_cat_40_n02124075_862.png,13.0,5,16
24,117,0.55,airplane,airplane,1111_eid_hum_4_airplane_40_n02690373_6999.png,13.0,5,4
24,118,0.6007,truck,truck,1111_eid_hum_0_truck_40_n04467665_11776.png,13.0,5,0
24,119,0.4006,cat,cat,1111_eid_hum_0_cat_40_n02123159_6505.png,13.0,5,0
24,120,1.0839,clock,clock,1111_eid_hum_0_clock_40_n03196217_3943.png,13.0,5,0
24,121,0.2342,airplane,airplane,1111_eid_hum_4_airplane_40_n02690373_18693.png,13.0,6,4
24,122,0.5667,truck,truck,1111_eid_hum_0_truck_40_n03417042_23440.png,13.0,6,0
24,123,0.3837,elephant,elephant,1111_eid_hum_0_elephant_40_n02504458_5561.png,13.0,6,0
24,124,13.5823,truck,keyboard,1111_eid_hum_16_keyboard_40_n04505470_2115.png,13.0,6,16
24,125,0.3169,keyboard,keyboard,1111_eid_hum_8_keyboard_40_n03085013_17762.png,13.0,6,8
24,126,0.3673,boat,boat,1111_eid_hum_8_boat_40_n02951358_2853.png,13.0,6,8
24,127,0.6838,clock,clock,1111_eid_hum_8_clock_40_n02708093_1431.png,13.0,6,8
24,128,1.0674,bottle,bottle,1111_eid_hum_4_bottle_40_n04560804_32398.png,13.0,6,4
24,129,0.4172,airplane,airplane,1111_eid_hum_4_airplane_40_n02690373_1071.png,13.0,6,4
24,130,0.7340000000000001,dog,dog,1111_eid_hum_16_dog_40_n02113624_1203.png,13.0,6,16
24,131,0.5504,airplane,airplane,1111_eid_hum_8_airplane_40_n02690373_2024.png,13.0,6,8
24,132,7.6494,bottle,knife,1111_eid_hum_16_knife_40_n03041632_3210.png,13.0,6,16
24,133,0.6835,clock,clock,1111_eid_hum_0_clock_40_n04548280_2518.png,13.0,6,0
24,134,4.8167,oven,oven,1111_eid_hum_16_oven_40_n04111531_1229.png,13.0,6,16
24,135,0.5168,car,car,1111_eid_hum_16_car_40_n04285008_2789.png,13.0,6,16
24,136,0.3674,elephant,elephant,1111_eid_hum_8_elephant_40_n02504458_7013.png,13.0,6,8
24,137,0.5338,chair,chair,1111_eid_hum_4_chair_40_n04099969_2267.png,13.0,6,4
24,138,0.7168,boat,boat,1111_eid_hum_0_boat_40_n02951358_15424.png,13.0,6,0
24,139,0.5839,boat,boat,1111_eid_hum_0_boat_40_n02951358_19768.png,13.0,6,0
24,140,0.4002,car,car,1111_eid_hum_4_car_40_n03100240_6954.png,13.0,6,4
24,141,11.5491,bicycle,knife,1111_eid_hum_4_knife_40_n03041632_14224.png,13.0,7,4
24,142,15.5986,oven,bottle,1111_eid_hum_4_bottle_40_n02823428_7033.png,13.0,7,4
24,143,0.3501,elephant,elephant,1111_eid_hum_0_elephant_40_n02504013_6660.png,13.0,7,0
24,144,0.3002,chair,chair,1111_eid_hum_8_chair_40_n04429376_8395.png,13.0,7,8
24,145,1.8669,cat,dog,1111_eid_hum_4_dog_40_n02112018_370.png,13.0,7,4
24,146,0.7673,elephant,elephant,1111_eid_hum_0_elephant_40_n02504458_4336.png,13.0,7,0
24,147,4.4333,dog,bear,1111_eid_hum_16_bear_40_n02132136_3169.png,13.0,7,16
24,148,3.4165,cat,knife,1111_eid_hum_16_knife_40_n03041632_11797.png,13.0,7,16
24,149,9.383,bird,oven,1111_eid_hum_0_oven_40_n04111531_14611.png,13.0,7,0
24,150,1.9332,dog,bear,1111_eid_hum_16_bear_40_n02132136_1934.png,13.0,7,16
24,151,0.3505,bear,bear,1111_eid_hum_8_bear_40_n02134084_6343.png,13.0,7,8
24,152,1.8507,keyboard,knife,1111_eid_hum_4_knife_40_n03041632_4808.png,13.0,7,4
24,153,3.2002,bear,oven,1111_eid_hum_16_oven_40_n04111531_21973.png,13.0,7,16
24,154,3.9336,bird,bird,1111_eid_hum_8_bird_40_n01537544_15048.png,13.0,7,8
24,155,0.6338,cat,cat,1111_eid_hum_8_cat_40_n02124075_9716.png,13.0,7,8
24,156,0.6007,chair,chair,1111_eid_hum_8_chair_40_n02791124_9124.png,13.0,7,8
24,157,4.9832,cat,bicycle,1111_eid_hum_16_bicycle_40_n02835271_276.png,13.0,7,16
24,158,0.5169,car,car,1111_eid_hum_4_car_40_n02814533_75974.png,13.0,7,4
24,159,0.6336,bicycle,bicycle,1111_eid_hum_0_bicycle_40_n03792782_23560.png,13.0,7,0
24,160,0.6834,chair,chair,1111_eid_hum_0_chair_40_n03376595_820.png,13.0,7,0
24,161,0.1674,elephant,elephant,1111_eid_hum_0_elephant_40_n02504458_4954.png,13.0,12,0
24,162,0.6506,truck,truck,1111_eid_hum_4_truck_40_n03417042_28078.png,13.0,12,4
24,163,0.2505,keyboard,keyboard,1111_eid_hum_0_keyboard_40_n04505470_4906.png,13.0,12,0
24,164,0.584,chair,clock,1111_eid_hum_8_clock_40_n03196217_6809.png,13.0,12,8
24,165,5.8166,elephant,bear,1111_eid_hum_16_bear_40_n02134084_4612.png,13.0,12,16
24,166,9.1824,keyboard,knife,1111_eid_hum_8_knife_40_n03041632_31909.png,13.0,12,8
24,167,0.2669,cat,cat,1111_eid_hum_16_cat_40_n02124075_14094.png,13.0,12,16
24,168,0.5835,chair,chair,1111_eid_hum_8_chair_40_n04099969_2398.png,13.0,12,8
24,169,0.3007,cat,cat,1111_eid_hum_8_cat_40_n02123159_3330.png,13.0,12,8
24,170,0.7668,truck,truck,1111_eid_hum_4_truck_40_n03796401_4309.png,13.0,12,4
24,171,1.4836,clock,clock,1111_eid_hum_16_clock_40_n03196217_8943.png,13.0,12,16
24,172,0.4003,bear,bear,1111_eid_hum_4_bear_40_n02134084_2004.png,13.0,12,4
24,173,0.3338,car,car,1111_eid_hum_0_car_40_n03100240_5489.png,13.0,12,0
24,174,0.667,airplane,airplane,1111_eid_hum_16_airplane_40_n02690373_2070.png,13.0,12,16
24,175,7.183,dog,knife,1111_eid_hum_16_knife_40_n03041632_15444.png,13.0,12,16
24,176,3.9834,knife,bottle,1111_eid_hum_4_bottle_40_n03937543_3759.png,13.0,12,4
24,177,0.3505,car,car,1111_eid_hum_8_car_40_n04285008_7096.png,13.0,12,8
24,178,0.284,chair,chair,1111_eid_hum_0_chair_40_n04099969_18182.png,13.0,12,0
24,179,7.9826,bird,bicycle,1111_eid_hum_4_bicycle_40_n03792782_11597.png,13.0,12,4
24,180,0.4336,keyboard,keyboard,1111_eid_hum_0_keyboard_40_n03085013_24618.png,13.0,12,0
24,181,0.5172,bicycle,bicycle,1111_eid_hum_4_bicycle_40_n03792782_3631.png,13.0,9,4
24,182,0.3338,bird,bird,1111_eid_hum_0_bird_40_n02027492_2004.png,13.0,9,0
24,183,3.5835,bottle,bottle,1111_eid_hum_0_bottle_40_n04591713_7221.png,13.0,9,0
24,184,3.017,oven,oven,1111_eid_hum_8_oven_40_n04111531_13247.png,13.0,9,8
24,185,0.8507,chair,chair,1111_eid_hum_8_chair_40_n02791124_2470.png,13.0,9,8
24,186,1.0505,cat,cat,1111_eid_hum_4_cat_40_n02124075_8351.png,13.0,9,4
24,187,0.5667,truck,truck,1111_eid_hum_4_truck_40_n04467665_50932.png,13.0,9,4
24,188,0.41700000000000004,cat,cat,1111_eid_hum_4_cat_40_n02123394_2364.png,13.0,9,4
24,189,2.3503,elephant,elephant,1111_eid_hum_16_elephant_40_n02504013_868.png,13.0,9,16
24,190,8.4495,airplane,knife,1111_eid_hum_16_knife_40_n03041632_32785.png,13.0,9,16
24,191,0.5171,keyboard,keyboard,1111_eid_hum_0_keyboard_40_n04505470_3947.png,13.0,9,0
24,192,3.4006,oven,oven,1111_eid_hum_8_oven_40_n04111531_4.png,13.0,9,8
24,193,0.7169,bicycle,bicycle,1111_eid_hum_8_bicycle_40_n03792782_52601.png,13.0,9,8
24,194,7.1827,bear,oven,1111_eid_hum_8_oven_40_n04111531_9712.png,13.0,9,8
24,195,4.6167,boat,airplane,1111_eid_hum_16_airplane_40_n02690373_8789.png,13.0,9,16
24,196,0.5339,truck,truck,1111_eid_hum_16_truck_40_n03796401_15756.png,13.0,9,16
24,197,14.8319,bottle,keyboard,1111_eid_hum_16_keyboard_40_n03085013_24577.png,13.0,9,16
24,198,0.2839,car,car,1111_eid_hum_0_car_40_n02814533_83068.png,13.0,9,0
24,199,0.3338,car,car,1111_eid_hum_4_car_40_n02814533_32461.png,13.0,9,4
24,200,0.3005,cat,cat,1111_eid_hum_0_cat_40_n02123045_2025.png,13.0,9,0
24,201,0.2837,bicycle,bicycle,1111_eid_hum_4_bicycle_40_n02835271_8273.png,13.0,10,4
24,202,0.7338,dog,dog,1111_eid_hum_0_dog_40_n02097130_1834.png,13.0,10,0
24,203,0.4337,bird,bird,1111_eid_hum_0_bird_40_n01530575_4260.png,13.0,10,0
24,204,2.1005,cat,bottle,1111_eid_hum_8_bottle_40_n04560804_11601.png,13.0,10,8
24,205,1.334,oven,oven,1111_eid_hum_16_oven_40_n04111531_23215.png,13.0,10,16
24,206,0.3006,elephant,elephant,1111_eid_hum_4_elephant_40_n02504458_1998.png,13.0,10,4
24,207,0.6335,boat,boat,1111_eid_hum_0_boat_40_n04612504_30742.png,13.0,10,0
24,208,0.9840000000000001,clock,clock,1111_eid_hum_16_clock_40_n03196217_8614.png,13.0,10,16
24,209,0.767,boat,boat,1111_eid_hum_4_boat_40_n04612504_7166.png,13.0,10,4
24,210,1.0334,dog,dog,1111_eid_hum_16_dog_40_n02096437_6439.png,13.0,10,16
24,211,0.8838,car,car,1111_eid_hum_8_car_40_n04285008_10287.png,13.0,10,8
24,212,0.3836,bird,bird,1111_eid_hum_4_bird_40_n02018795_11949.png,13.0,10,4
24,213,0.7169,elephant,elephant,1111_eid_hum_16_elephant_40_n02504013_10462.png,13.0,10,16
24,214,3.9498,cat,dog,1111_eid_hum_16_dog_40_n02107142_1550.png,13.0,10,16
24,215,3.6832,bear,boat,1111_eid_hum_8_boat_40_n04273569_13091.png,13.0,10,8
24,216,8.6161,oven,knife,1111_eid_hum_8_knife_40_n03041632_17338.png,13.0,10,8
24,217,3.5997,keyboard,bottle,1111_eid_hum_8_bottle_40_n04591713_5754.png,13.0,10,8
24,218,1.0508,oven,oven,1111_eid_hum_4_oven_40_n04111531_10011.png,13.0,10,4
24,219,0.5506,dog,dog,1111_eid_hum_0_dog_40_n02112706_2952.png,13.0,10,0
24,220,0.6338,bear,bear,1111_eid_hum_0_bear_40_n02132136_5184.png,13.0,10,0
24,221,0.5168,knife,knife,1111_eid_hum_4_knife_40_n03041632_26340.png,13.0,11,4
24,222,0.3339,bear,bear,1111_eid_hum_0_bear_40_n02132136_11149.png,13.0,11,0
24,223,0.3007,clock,clock,1111_eid_hum_4_clock_40_n04548280_1438.png,13.0,11,4
24,224,0.3504,bear,bear,1111_eid_hum_0_bear_40_n02132136_6787.png,13.0,11,0
24,225,0.7839,bottle,bottle,1111_eid_hum_4_bottle_40_n04560804_13773.png,13.0,11,4
24,226,5.8331,oven,chair,1111_eid_hum_16_chair_40_n04429376_3620.png,13.0,11,16
24,227,1.3501,boat,boat,1111_eid_hum_8_boat_40_n03344393_302.png,13.0,11,8
24,228,1.6836,boat,bicycle,1111_eid_hum_16_bicycle_40_n03792782_3047.png,13.0,11,16
24,229,1.3168,dog,dog,1111_eid_hum_16_dog_40_n02100877_20916.png,13.0,11,16
24,230,0.6336,airplane,airplane,1111_eid_hum_8_airplane_40_n02690373_1837.png,13.0,11,8
24,231,3.0665,bicycle,boat,1111_eid_hum_16_boat_40_n02951358_4826.png,13.0,11,16
24,232,0.4504,airplane,airplane,1111_eid_hum_0_airplane_40_n02690373_4243.png,13.0,11,0
24,233,0.7671,bird,bird,1111_eid_hum_16_bird_40_n02037110_11551.png,13.0,11,16
24,234,0.3006,truck,truck,1111_eid_hum_4_truck_40_n04467665_1077.png,13.0,11,4
24,235,0.3341,elephant,elephant,1111_eid_hum_8_elephant_40_n02504458_1848.png,13.0,11,8
24,236,6.9999,chair,chair,1111_eid_hum_8_chair_40_n02791124_141.png,13.0,11,8
24,237,0.8838,clock,clock,1111_eid_hum_8_clock_40_n02708093_462.png,13.0,11,8
24,238,0.4343,bird,bird,1111_eid_hum_4_bird_40_n02025239_22501.png,13.0,11,4
24,239,0.2669,keyboard,keyboard,1111_eid_hum_0_keyboard_40_n03085013_1483.png,13.0,11,0
24,240,0.184,airplane,airplane,1111_eid_hum_0_airplane_40_n02690373_19152.png,13.0,11,0
24,241,0.5666,bicycle,bicycle,1111_eid_hum_4_bicycle_40_n03792782_17337.png,13.0,13,4
24,242,3.766,bird,oven,1111_eid_hum_0_oven_40_n04111531_2371.png,13.0,13,0
24,243,0.2671,cat,cat,1111_eid_hum_4_cat_40_n02123394_2903.png,13.0,13,4
24,244,0.7170000000000001,bird,bird,1111_eid_hum_16_bird_40_n01532829_22520.png,13.0,13,16
24,245,2.0838,airplane,airplane,1111_eid_hum_8_airplane_40_n02690373_3874.png,13.0,13,8
24,246,0.8170000000000001,knife,knife,1111_eid_hum_8_knife_40_n03041632_105081.png,13.0,13,8
24,247,0.4668,knife,knife,1111_eid_hum_0_knife_40_n03041632_11285.png,13.0,13,0
24,248,6.1664,bottle,clock,1111_eid_hum_16_clock_40_n04548280_8585.png,13.0,13,16
24,249,1.2337,bear,bear,1111_eid_hum_4_bear_40_n02134084_10224.png,13.0,13,4
24,250,0.3836,dog,dog,1111_eid_hum_8_dog_40_n02105056_9209.png,13.0,13,8
24,251,2.867,cat,cat,1111_eid_hum_8_cat_40_n02123045_8774.png,13.0,13,8
24,252,5.4997,bird,chair,1111_eid_hum_16_chair_40_n03376595_2566.png,13.0,13,16
24,253,1.0667,chair,chair,1111_eid_hum_16_chair_40_n04429376_10128.png,13.0,13,16
24,254,0.5168,elephant,elephant,1111_eid_hum_4_elephant_40_n02504458_5176.png,13.0,13,4
24,255,1.0668,bicycle,bicycle,1111_eid_hum_16_bicycle_40_n02835271_15925.png,13.0,13,16
24,256,1.1167,car,car,1111_eid_hum_0_car_40_n03100240_24331.png,13.0,13,0
24,257,0.9506,bird,bird,1111_eid_hum_8_bird_40_n01601694_13334.png,13.0,13,8
24,258,0.6335,dog,dog,1111_eid_hum_0_dog_40_n02106382_14862.png,13.0,13,0
24,259,0.3504,cat,cat,1111_eid_hum_4_cat_40_n02123597_3037.png,13.0,13,4
24,260,0.3339,bicycle,bicycle,1111_eid_hum_0_bicycle_40_n02835271_1299.png,13.0,13,0
24,261,0.7337,cat,cat,1111_eid_hum_0_cat_40_n02123159_2684.png,13.0,14,0
24,262,0.6336,boat,boat,1111_eid_hum_0_boat_40_n02951358_14612.png,13.0,14,0
24,263,0.5837,oven,oven,1111_eid_hum_0_oven_40_n04111531_9490.png,13.0,14,0
24,264,0.3507,car,car,1111_eid_hum_4_car_40_n03100240_6805.png,13.0,14,4
24,265,4.7163,oven,bird,1111_eid_hum_16_bird_40_n01530575_6098.png,13.0,14,16
24,266,1.0173,truck,truck,1111_eid_hum_16_truck_40_n03417042_11.png,13.0,14,16
24,267,10.9153,keyboard,bottle,1111_eid_hum_8_bottle_40_n03983396_11337.png,13.0,14,8
24,268,8.5826,bear,bear,1111_eid_hum_8_bear_40_n02134418_4895.png,13.0,14,8
24,269,0.4169,dog,dog,1111_eid_hum_4_dog_40_n02105056_328.png,13.0,14,4
24,270,2.4668,bear,elephant,1111_eid_hum_16_elephant_40_n02504458_1844.png,13.0,14,16
24,271,0.9337,keyboard,clock,1111_eid_hum_8_clock_40_n02708093_2843.png,13.0,14,8
24,272,4.0834,chair,chair,1111_eid_hum_4_chair_40_n03376595_6837.png,13.0,14,4
24,273,1.7675,oven,oven,1111_eid_hum_16_oven_40_n04111531_326.png,13.0,14,16
24,274,0.5505,bear,bear,1111_eid_hum_8_bear_40_n02133161_2137.png,13.0,14,8
24,275,1.2337,boat,boat,1111_eid_hum_16_boat_40_n03344393_6758.png,13.0,14,16
24,276,0.434,keyboard,keyboard,1111_eid_hum_4_keyboard_40_n04505470_6272.png,13.0,14,4
24,277,7.6164,oven,clock,1111_eid_hum_8_clock_40_n03196217_5478.png,13.0,14,8
24,278,0.7841,knife,knife,1111_eid_hum_0_knife_40_n03041632_83826.png,13.0,14,0
24,279,0.3674,airplane,airplane,1111_eid_hum_0_airplane_40_n02690373_14117.png,13.0,14,0
24,280,0.2172,airplane,airplane,1111_eid_hum_4_airplane_40_n02690373_3912.png,13.0,14,4
24,281,0.6005,truck,truck,1111_eid_hum_0_truck_40_n03796401_19114.png,13.0,15,0
24,282,0.2502,keyboard,keyboard,1111_eid_hum_4_keyboard_40_n03085013_6978.png,13.0,15,4
24,283,0.2671,dog,dog,1111_eid_hum_4_dog_40_n02110806_2586.png,13.0,15,4
24,284,0.2672,chair,chair,1111_eid_hum_0_chair_40_n04099969_20900.png,13.0,15,0
24,285,0.6339,chair,chair,1111_eid_hum_4_chair_40_n04429376_18127.png,13.0,15,4
24,286,2.8335,bottle,bottle,1111_eid_hum_8_bottle_40_n04579145_1302.png,13.0,15,8
24,287,0.5005,elephant,elephant,1111_eid_hum_8_elephant_40_n02504458_7408.png,13.0,15,8
24,288,0.4674,car,car,1111_eid_hum_0_car_40_n02814533_1165.png,13.0,15,0
24,289,0.6337,car,car,1111_eid_hum_16_car_40_n02814533_23512.png,13.0,15,16
24,290,0.2834,elephant,elephant,1111_eid_hum_8_elephant_40_n02504013_1916.png,13.0,15,8
24,291,0.8504,boat,boat,1111_eid_hum_4_boat_40_n02951358_34441.png,13.0,15,4
24,292,3.6497,knife,bottle,1111_eid_hum_16_bottle_40_n02823428_825.png,13.0,15,16
24,293,5.2499,dog,truck,1111_eid_hum_16_truck_40_n03796401_14381.png,13.0,15,16
24,294,6.5166,bird,bird,1111_eid_hum_16_bird_40_n02007558_45529.png,13.0,15,16
24,295,10.0324,knife,knife,1111_eid_hum_16_knife_40_n03041632_21723.png,13.0,15,16
24,296,0.3336,airplane,airplane,1111_eid_hum_8_airplane_40_n02690373_3993.png,13.0,15,8
24,297,0.6837,bear,bear,1111_eid_hum_8_bear_40_n02134418_832.png,13.0,15,8
24,298,1.1507,bottle,bottle,1111_eid_hum_0_bottle_40_n04591713_595.png,13.0,15,0
24,299,0.3343,clock,clock,1111_eid_hum_4_clock_40_n04548280_3997.png,13.0,15,4
24,300,0.4173,knife,knife,1111_eid_hum_0_knife_40_n03041632_47410.png,13.0,15,0
24,301,0.2173,truck,truck,1111_eid_hum_0_truck_40_n03796401_17504.png,13.0,16,0
24,302,1.1008,oven,oven,1111_eid_hum_0_oven_40_n04111531_9844.png,13.0,16,0
24,303,0.4506,truck,truck,1111_eid_hum_0_truck_40_n03417042_12133.png,13.0,16,0
24,304,0.6171,airplane,airplane,1111_eid_hum_16_airplane_40_n02690373_2435.png,13.0,16,16
24,305,0.3172,keyboard,keyboard,1111_eid_hum_8_keyboard_40_n04505470_933.png,13.0,16,8
24,306,0.1167,cat,cat,1111_eid_hum_8_cat_40_n02124075_8754.png,13.0,16,8
24,307,2.0168,boat,boat,1111_eid_hum_8_boat_40_n02951358_12866.png,13.0,16,8
24,308,0.4004,car,car,1111_eid_hum_8_car_40_n02814533_27150.png,13.0,16,8
24,309,0.6504,dog,dog,1111_eid_hum_4_dog_40_n02101388_2075.png,13.0,16,4
24,310,0.5838,bear,bear,1111_eid_hum_4_bear_40_n02133161_10314.png,13.0,16,4
24,311,1.6339,clock,clock,1111_eid_hum_4_clock_40_n03196217_5252.png,13.0,16,4
24,312,3.1,cat,oven,1111_eid_hum_16_oven_40_n04111531_7034.png,13.0,16,16
24,313,5.6167,bird,boat,1111_eid_hum_16_boat_40_n02951358_5718.png,13.0,16,16
24,314,1.1174,bicycle,bicycle,1111_eid_hum_16_bicycle_40_n02835271_7873.png,13.0,16,16
24,315,0.4171,bicycle,bicycle,1111_eid_hum_8_bicycle_40_n03792782_33855.png,13.0,16,8
24,316,0.6506,elephant,elephant,1111_eid_hum_4_elephant_40_n02504013_19694.png,13.0,16,4
24,317,5.0002,oven,keyboard,1111_eid_hum_16_keyboard_40_n04505470_1874.png,13.0,16,16
24,318,0.9338,bottle,bottle,1111_eid_hum_0_bottle_40_n04560804_12278.png,13.0,16,0
24,319,0.5836,keyboard,keyboard,1111_eid_hum_4_keyboard_40_n03085013_6038.png,13.0,16,4
24,320,0.4004,bird,bird,1111_eid_hum_0_bird_40_n01819313_3893.png,13.0,16,0
60,1,0.8169,bicycle,bicycle,1111_eid_hum_0_bicycle_40_n03792782_1030.png,14.0,1,0
60,2,0.4668,keyboard,keyboard,1111_eid_hum_0_keyboard_40_n04505470_2570.png,14.0,1,0
60,3,0.9838,knife,knife,1111_eid_hum_4_knife_40_n03041632_48071.png,14.0,1,4
60,4,0.3004,cat,cat,1111_eid_hum_8_cat_40_n02124075_3533.png,14.0,1,8
60,5,1.0003,truck,truck,1111_eid_hum_8_truck_40_n03417042_14000.png,14.0,1,8
60,6,0.9005,truck,truck,1111_eid_hum_8_truck_40_n03417042_10300.png,14.0,1,8
60,7,5.0331,bird,bottle,1111_eid_hum_16_bottle_40_n04560804_9813.png,14.0,1,16
60,8,0.5672,bicycle,bicycle,1111_eid_hum_4_bicycle_40_n03792782_14216.png,14.0,1,4
60,9,1.5169,boat,airplane,1111_eid_hum_16_airplane_40_n02690373_6853.png,14.0,1,16
60,10,3.7501,car,keyboard,1111_eid_hum_16_keyboard_40_n03085013_19436.png,14.0,1,16
60,11,0.6171,airplane,airplane,1111_eid_hum_16_airplane_40_n02690373_1161.png,14.0,1,16
60,12,5.3496,bottle,boat,1111_eid_hum_16_boat_40_n03344393_7433.png,14.0,1,16
60,13,0.4838,bear,bear,1111_eid_hum_0_bear_40_n02134084_19407.png,14.0,1,0
60,14,0.6171,bicycle,bicycle,1111_eid_hum_8_bicycle_40_n02835271_15038.png,14.0,1,8
60,15,1.4504,cat,bird,1111_eid_hum_4_bird_40_n01537544_2772.png,14.0,1,4
60,16,4.8332,oven,truck,1111_eid_hum_8_truck_40_n03417042_12486.png,14.0,1,8
60,17,0.3504,airplane,airplane,1111_eid_hum_0_airplane_40_n02690373_6231.png,14.0,1,0
60,18,1.0504,oven,oven,1111_eid_hum_4_oven_40_n04111531_1054.png,14.0,1,4
60,19,0.3836,car,car,1111_eid_hum_0_car_40_n02814533_82925.png,14.0,1,0
60,20,0.4006,cat,cat,1111_eid_hum_4_cat_40_n02123045_9341.png,14.0,1,4
60,21,2.4333,bottle,bottle,1111_eid_hum_4_bottle_40_n04560804_15228.png,14.0,2,4
60,22,0.2502,cat,cat,1111_eid_hum_0_cat_40_n02123045_964.png,14.0,2,0
60,23,0.5003,bird,bird,1111_eid_hum_0_bird_40_n01818515_7890.png,14.0,2,0
60,24,0.8171,boat,boat,1111_eid_hum_4_boat_40_n02951358_31835.png,14.0,2,4
60,25,0.4835,bottle,bottle,1111_eid_hum_0_bottle_40_n04591713_6238.png,14.0,2,0
60,26,8.4828,oven,keyboard,1111_eid_hum_8_keyboard_40_n03085013_4160.png,14.0,2,8
60,27,1.2671,bear,clock,1111_eid_hum_16_clock_40_n03196217_585.png,14.0,2,16
60,28,0.5003,bear,bear,1111_eid_hum_8_bear_40_n02134084_34728.png,14.0,2,8
60,29,0.4336,truck,truck,1111_eid_hum_8_truck_40_n03796401_4495.png,14.0,2,8
60,30,4.95,truck,truck,1111_eid_hum_8_truck_40_n03417042_1656.png,14.0,2,8
60,31,0.7503,bicycle,bicycle,1111_eid_hum_16_bicycle_40_n03792782_692.png,14.0,2,16
60,32,7.0994,clock,bottle,1111_eid_hum_16_bottle_40_n03983396_4843.png,14.0,2,16
60,33,2.3504,boat,boat,1111_eid_hum_16_boat_40_n04273569_1141.png,14.0,2,16
60,34,2.1675,dog,cat,1111_eid_hum_16_cat_40_n02124075_20957.png,14.0,2,16
60,35,0.8170000000000001,knife,knife,1111_eid_hum_8_knife_40_n03041632_47743.png,14.0,2,8
60,36,0.4672,cat,cat,1111_eid_hum_0_cat_40_n02123159_3226.png,14.0,2,0
60,37,1.7503,elephant,elephant,1111_eid_hum_4_elephant_40_n02504013_8385.png,14.0,2,4
60,38,0.4669,boat,boat,1111_eid_hum_0_boat_40_n04612504_8942.png,14.0,2,0
60,39,0.4338,knife,knife,1111_eid_hum_4_knife_40_n03041632_11475.png,14.0,2,4
60,40,1.1836,chair,chair,1111_eid_hum_4_chair_40_n04429376_9212.png,14.0,2,4
60,41,0.4834,knife,knife,1111_eid_hum_0_knife_40_n03041632_24277.png,14.0,3,0
60,42,8.4493,clock,clock,1111_eid_hum_0_clock_40_n04548280_7490.png,14.0,3,0
60,43,0.3504,bear,bear,1111_eid_hum_4_bear_40_n02134418_703.png,14.0,3,4
60,44,0.4337,elephant,elephant,1111_eid_hum_8_elephant_40_n02504458_3953.png,14.0,3,8
60,45,3.8332,cat,oven,1111_eid_hum_8_oven_40_n04111531_18592.png,14.0,3,8
60,46,0.4671,elephant,elephant,1111_eid_hum_16_elephant_40_n02504458_3140.png,14.0,3,16
60,47,3.9665,cat,car,1111_eid_hum_16_car_40_n04285008_88.png,14.0,3,16
60,48,0.3171,car,car,1111_eid_hum_4_car_40_n02814533_18458.png,14.0,3,4
60,49,0.5172,bear,bear,1111_eid_hum_16_bear_40_n02134418_4886.png,14.0,3,16
60,50,0.3006,bicycle,bicycle,1111_eid_hum_8_bicycle_40_n02835271_8081.png,14.0,3,8
60,51,0.5668,chair,chair,1111_eid_hum_16_chair_40_n04099969_13056.png,14.0,3,16
60,52,8.216000000000001,dog,dog,1111_eid_hum_4_dog_40_n02098105_1796.png,14.0,3,4
60,53,0.5006,bird,bird,1111_eid_hum_8_bird_40_n02033041_6633.png,14.0,3,8
60,54,0.3837,airplane,airplane,1111_eid_hum_0_airplane_40_n02690373_1277.png,14.0,3,0
60,55,0.5337,elephant,elephant,1111_eid_hum_16_elephant_40_n02504013_3141.png,14.0,3,16
60,56,0.5339,boat,boat,1111_eid_hum_4_boat_40_n02951358_32429.png,14.0,3,4
60,57,0.6505,boat,airplane,1111_eid_hum_8_airplane_40_n02690373_5870.png,14.0,3,8
60,58,0.2508,chair,chair,1111_eid_hum_0_chair_40_n03376595_4469.png,14.0,3,0
60,59,6.733,keyboard,oven,1111_eid_hum_4_oven_40_n04111531_2930.png,14.0,3,4
60,60,3.8832,elephant,dog,1111_eid_hum_0_dog_40_n02099712_5781.png,14.0,3,0
60,61,0.3007,clock,clock,1111_eid_hum_4_clock_40_n02708093_3459.png,14.0,4,4
60,62,0.2837,elephant,elephant,1111_eid_hum_0_elephant_40_n02504458_1735.png,14.0,4,0
60,63,0.534,dog,dog,1111_eid_hum_0_dog_40_n02090721_1456.png,14.0,4,0
60,64,0.1838,dog,dog,1111_eid_hum_8_dog_40_n02108000_324.png,14.0,4,8
60,65,1.0669,car,car,1111_eid_hum_8_car_40_n03100240_418.png,14.0,4,8
60,66,3.1332,clock,clock,1111_eid_hum_0_clock_40_n03196217_4004.png,14.0,4,0
60,67,0.4504,chair,chair,1111_eid_hum_0_chair_40_n03376595_4309.png,14.0,4,0
60,68,0.5003,car,car,1111_eid_hum_16_car_40_n02814533_89061.png,14.0,4,16
60,69,1.9335,bottle,bottle,1111_eid_hum_16_bottle_40_n04591713_2718.png,14.0,4,16
60,70,2.9002,car,keyboard,1111_eid_hum_8_keyboard_40_n04505470_1833.png,14.0,4,8
60,71,0.5836,knife,knife,1111_eid_hum_8_knife_40_n03041632_25022.png,14.0,4,8
60,72,0.5504,bird,bird,1111_eid_hum_4_bird_40_n02007558_10725.png,14.0,4,4
60,73,0.7837,elephant,chair,1111_eid_hum_16_chair_40_n04429376_42324.png,14.0,4,16
60,74,2.7335,bicycle,oven,1111_eid_hum_4_oven_40_n04111531_11530.png,14.0,4,4
60,75,2.1004,elephant,clock,1111_eid_hum_16_clock_40_n04548280_711.png,14.0,4,16
60,76,0.5172,oven,oven,1111_eid_hum_8_oven_40_n04111531_18645.png,14.0,4,8
60,77,0.4837,dog,dog,1111_eid_hum_16_dog_40_n02110806_16707.png,14.0,4,16
60,78,0.2339,keyboard,keyboard,1111_eid_hum_4_keyboard_40_n03085013_2122.png,14.0,4,4
60,79,0.3672,bird,bird,1111_eid_hum_4_bird_40_n01531178_8282.png,14.0,4,4
60,80,0.2671,bear,bear,1111_eid_hum_0_bear_40_n02133161_1498.png,14.0,4,0
60,81,0.2507,keyboard,keyboard,1111_eid_hum_4_keyboard_40_n03085013_24455.png,14.0,8,4
60,82,0.2505,airplane,airplane,1111_eid_hum_4_airplane_40_n02690373_4728.png,14.0,8,4
60,83,0.3671,chair,chair,1111_eid_hum_4_chair_40_n04429376_19101.png,14.0,8,4
60,84,0.5338,dog,dog,1111_eid_hum_8_dog_40_n02088632_2814.png,14.0,8,8
60,85,0.3004,bird,bird,1111_eid_hum_0_bird_40_n02037110_8732.png,14.0,8,0
60,86,0.317,bird,bird,1111_eid_hum_8_bird_40_n02009229_5962.png,14.0,8,8
60,87,0.2169,bicycle,bicycle,1111_eid_hum_0_bicycle_40_n03792782_47774.png,14.0,8,0
60,88,0.4671,keyboard,keyboard,1111_eid_hum_16_keyboard_40_n03085013_25181.png,14.0,8,16
60,89,0.5171,truck,truck,1111_eid_hum_16_truck_40_n03417042_19905.png,14.0,8,16
60,90,0.3505,bicycle,bicycle,1111_eid_hum_8_bicycle_40_n03792782_3467.png,14.0,8,8
60,91,4.3665,elephant,truck,1111_eid_hum_16_truck_40_n03417042_16389.png,14.0,8,16
60,92,1.2335,oven,oven,1111_eid_hum_0_oven_40_n04111531_10306.png,14.0,8,0
60,93,0.5338,car,car,1111_eid_hum_16_car_40_n04285008_9470.png,14.0,8,16
60,94,0.8504,boat,boat,1111_eid_hum_8_boat_40_n02951358_34051.png,14.0,8,8
60,95,0.3671,car,car,1111_eid_hum_8_car_40_n04285008_3280.png,14.0,8,8
60,96,0.3838,bear,bear,1111_eid_hum_16_bear_40_n02134084_5027.png,14.0,8,16
60,97,0.4006,bicycle,bicycle,1111_eid_hum_0_bicycle_40_n02835271_13131.png,14.0,8,0
60,98,1.9001,bottle,bottle,1111_eid_hum_0_bottle_40_n03937543_2357.png,14.0,8,0
60,99,0.3838,bear,bear,1111_eid_hum_4_bear_40_n02134418_4041.png,14.0,8,4
60,100,1.2172,oven,oven,1111_eid_hum_4_oven_40_n04111531_15649.png,14.0,8,4
60,101,1.1172,clock,clock,1111_eid_hum_0_clock_40_n03196217_4417.png,14.0,5,0
60,102,0.2504,boat,boat,1111_eid_hum_4_boat_40_n02951358_8194.png,14.0,5,4
60,103,0.4171,knife,knife,1111_eid_hum_0_knife_40_n03041632_24114.png,14.0,5,0
60,104,0.3503,clock,clock,1111_eid_hum_0_clock_40_n03196217_3943.png,14.0,5,0
60,105,0.4504,bear,dog,1111_eid_hum_8_dog_40_n02102318_11816.png,14.0,5,8
60,106,0.6168,oven,keyboard,1111_eid_hum_8_keyboard_40_n04505470_1430.png,14.0,5,8
60,107,0.7172,truck,truck,1111_eid_hum_4_truck_40_n03417042_10043.png,14.0,5,4
60,108,0.4834,bear,cat,1111_eid_hum_16_cat_40_n02123394_2690.png,14.0,5,16
60,109,0.7504,dog,cat,1111_eid_hum_16_cat_40_n02124075_862.png,14.0,5,16
60,110,2.7335,bird,cat,1111_eid_hum_16_cat_40_n02123597_5017.png,14.0,5,16
60,111,2.6669,boat,bottle,1111_eid_hum_16_bottle_40_n04591713_2024.png,14.0,5,16
60,112,4.5499,oven,bird,1111_eid_hum_8_bird_40_n01843383_8077.png,14.0,5,8
60,113,0.6671,bottle,bottle,1111_eid_hum_8_bottle_40_n04560804_19872.png,14.0,5,8
60,114,0.4837,clock,clock,1111_eid_hum_4_clock_40_n04548280_11068.png,14.0,5,4
60,115,0.5507,dog,dog,1111_eid_hum_8_dog_40_n02101556_7442.png,14.0,5,8
60,116,0.5504,bird,bird,1111_eid_hum_16_bird_40_n01860187_6891.png,14.0,5,16
60,117,0.3338,cat,cat,1111_eid_hum_0_cat_40_n02123159_6505.png,14.0,5,0
60,118,0.3171,truck,truck,1111_eid_hum_0_truck_40_n04467665_11776.png,14.0,5,0
60,119,0.4505,elephant,elephant,1111_eid_hum_4_elephant_40_n02504458_4.png,14.0,5,4
60,120,0.134,airplane,airplane,1111_eid_hum_4_airplane_40_n02690373_6999.png,14.0,5,4
60,121,0.4008,bottle,bottle,1111_eid_hum_4_bottle_40_n04560804_32398.png,14.0,6,4
60,122,0.1672,airplane,airplane,1111_eid_hum_4_airplane_40_n02690373_18693.png,14.0,6,4
60,123,0.7005,boat,boat,1111_eid_hum_0_boat_40_n02951358_15424.png,14.0,6,0
60,124,0.4838,elephant,elephant,1111_eid_hum_0_elephant_40_n02504458_5561.png,14.0,6,0
60,125,0.3673,keyboard,keyboard,1111_eid_hum_8_keyboard_40_n03085013_17762.png,14.0,6,8
60,126,0.3172,boat,boat,1111_eid_hum_8_boat_40_n02951358_2853.png,14.0,6,8
60,127,4.9499,knife,clock,1111_eid_hum_8_clock_40_n02708093_1431.png,14.0,6,8
60,128,0.5673,dog,dog,1111_eid_hum_16_dog_40_n02113624_1203.png,14.0,6,16
60,129,0.6499,keyboard,keyboard,1111_eid_hum_16_keyboard_40_n04505470_2115.png,14.0,6,16
60,130,1.1004,boat,airplane,1111_eid_hum_8_airplane_40_n02690373_2024.png,14.0,6,8
60,131,1.1004,keyboard,car,1111_eid_hum_16_car_40_n04285008_2789.png,14.0,6,16
60,132,0.7507,chair,chair,1111_eid_hum_4_chair_40_n04099969_2267.png,14.0,6,4
60,133,1.7333,oven,oven,1111_eid_hum_16_oven_40_n04111531_1229.png,14.0,6,16
60,134,0.2838,truck,truck,1111_eid_hum_0_truck_40_n03417042_23440.png,14.0,6,0
60,135,0.5003,airplane,airplane,1111_eid_hum_4_airplane_40_n02690373_1071.png,14.0,6,4
60,136,5.3497,bear,knife,1111_eid_hum_16_knife_40_n03041632_3210.png,14.0,6,16
60,137,0.2672,elephant,elephant,1111_eid_hum_8_elephant_40_n02504458_7013.png,14.0,6,8
60,138,0.3836,boat,boat,1111_eid_hum_0_boat_40_n02951358_19768.png,14.0,6,0
60,139,0.4336,clock,clock,1111_eid_hum_0_clock_40_n04548280_2518.png,14.0,6,0
60,140,0.2336,car,car,1111_eid_hum_4_car_40_n03100240_6954.png,14.0,6,4
60,141,11.4487,knife,bottle,1111_eid_hum_4_bottle_40_n02823428_7033.png,14.0,7,4
60,142,0.7505,knife,knife,1111_eid_hum_4_knife_40_n03041632_4808.png,14.0,7,4
60,143,0.6169,car,car,1111_eid_hum_4_car_40_n02814533_75974.png,14.0,7,4
60,144,0.2672,bear,bear,1111_eid_hum_8_bear_40_n02134084_6343.png,14.0,7,8
60,145,1.4003,dog,bear,1111_eid_hum_16_bear_40_n02132136_3169.png,14.0,7,16
60,146,0.2508,chair,chair,1111_eid_hum_0_chair_40_n03376595_820.png,14.0,7,0
60,147,0.8335,dog,dog,1111_eid_hum_4_dog_40_n02112018_370.png,14.0,7,4
60,148,0.3004,bicycle,bicycle,1111_eid_hum_0_bicycle_40_n03792782_23560.png,14.0,7,0
60,149,2.4835,knife,knife,1111_eid_hum_16_knife_40_n03041632_11797.png,14.0,7,16
60,150,0.41700000000000004,cat,cat,1111_eid_hum_8_cat_40_n02124075_9716.png,14.0,7,8
60,151,1.217,dog,bicycle,1111_eid_hum_16_bicycle_40_n02835271_276.png,14.0,7,16
60,152,2.6834,dog,bear,1111_eid_hum_16_bear_40_n02132136_1934.png,14.0,7,16
60,153,0.7659,car,chair,1111_eid_hum_8_chair_40_n02791124_9124.png,14.0,7,8
60,154,1.5671,bear,bird,1111_eid_hum_8_bird_40_n01537544_15048.png,14.0,7,8
60,155,0.4172,elephant,elephant,1111_eid_hum_0_elephant_40_n02504458_4336.png,14.0,7,0
60,156,1.0170000000000001,elephant,oven,1111_eid_hum_16_oven_40_n04111531_21973.png,14.0,7,16
60,157,0.3837,chair,chair,1111_eid_hum_8_chair_40_n04429376_8395.png,14.0,7,8
60,158,0.4166,knife,knife,1111_eid_hum_4_knife_40_n03041632_14224.png,14.0,7,4
60,159,0.2341,elephant,elephant,1111_eid_hum_0_elephant_40_n02504013_6660.png,14.0,7,0
60,160,3.4502,bear,oven,1111_eid_hum_0_oven_40_n04111531_14611.png,14.0,7,0
60,161,0.3338,truck,truck,1111_eid_hum_4_truck_40_n03417042_28078.png,14.0,12,4
60,162,1.3003,bicycle,bicycle,1111_eid_hum_4_bicycle_40_n03792782_11597.png,14.0,12,4
60,163,0.2336,keyboard,keyboard,1111_eid_hum_0_keyboard_40_n04505470_4906.png,14.0,12,0
60,164,3.1499,clock,clock,1111_eid_hum_8_clock_40_n03196217_6809.png,14.0,12,8
60,165,0.1504,car,car,1111_eid_hum_0_car_40_n03100240_5489.png,14.0,12,0
60,166,0.2838,bear,bear,1111_eid_hum_4_bear_40_n02134084_2004.png,14.0,12,4
60,167,0.9003,clock,clock,1111_eid_hum_16_clock_40_n03196217_8943.png,14.0,12,16
60,168,1.0837,knife,knife,1111_eid_hum_8_knife_40_n03041632_31909.png,14.0,12,8
60,169,2.1002,bear,bear,1111_eid_hum_16_bear_40_n02134084_4612.png,14.0,12,16
60,170,0.5837,chair,chair,1111_eid_hum_0_chair_40_n04099969_18182.png,14.0,12,0
60,171,0.4337,airplane,airplane,1111_eid_hum_16_airplane_40_n02690373_2070.png,14.0,12,16
60,172,0.4837,cat,cat,1111_eid_hum_8_cat_40_n02123159_3330.png,14.0,12,8
60,173,0.6169,elephant,knife,1111_eid_hum_16_knife_40_n03041632_15444.png,14.0,12,16
60,174,1.05,bottle,bottle,1111_eid_hum_4_bottle_40_n03937543_3759.png,14.0,12,4
60,175,0.4837,car,car,1111_eid_hum_8_car_40_n04285008_7096.png,14.0,12,8
60,176,0.3506,chair,chair,1111_eid_hum_8_chair_40_n04099969_2398.png,14.0,12,8
60,177,0.3007,cat,cat,1111_eid_hum_16_cat_40_n02124075_14094.png,14.0,12,16
60,178,0.284,elephant,elephant,1111_eid_hum_0_elephant_40_n02504458_4954.png,14.0,12,0
60,179,1.1003,truck,truck,1111_eid_hum_4_truck_40_n03796401_4309.png,14.0,12,4
60,180,0.2509,keyboard,keyboard,1111_eid_hum_0_keyboard_40_n03085013_24618.png,14.0,12,0
60,181,0.2673,cat,cat,1111_eid_hum_4_cat_40_n02124075_8351.png,14.0,9,4
60,182,0.1506,keyboard,keyboard,1111_eid_hum_0_keyboard_40_n04505470_3947.png,14.0,9,0
60,183,0.3672,truck,truck,1111_eid_hum_4_truck_40_n04467665_50932.png,14.0,9,4
60,184,0.2838,bird,bird,1111_eid_hum_0_bird_40_n02027492_2004.png,14.0,9,0
60,185,0.5505,chair,keyboard,1111_eid_hum_16_keyboard_40_n03085013_24577.png,14.0,9,16
60,186,2.6498,dog,airplane,1111_eid_hum_16_airplane_40_n02690373_8789.png,14.0,9,16
60,187,1.2004,knife,knife,1111_eid_hum_16_knife_40_n03041632_32785.png,14.0,9,16
60,188,0.5672,knife,oven,1111_eid_hum_8_oven_40_n04111531_4.png,14.0,9,8
60,189,0.6339,keyboard,oven,1111_eid_hum_8_oven_40_n04111531_13247.png,14.0,9,8
60,190,0.2506,cat,cat,1111_eid_hum_4_cat_40_n02123394_2364.png,14.0,9,4
60,191,0.6504,elephant,elephant,1111_eid_hum_16_elephant_40_n02504013_868.png,14.0,9,16
60,192,1.0838,chair,oven,1111_eid_hum_8_oven_40_n04111531_9712.png,14.0,9,8
60,193,4.2167,chair,bicycle,1111_eid_hum_8_bicycle_40_n03792782_52601.png,14.0,9,8
60,194,3.9999,car,chair,1111_eid_hum_8_chair_40_n02791124_2470.png,14.0,9,8
60,195,1.5838,bottle,bottle,1111_eid_hum_0_bottle_40_n04591713_7221.png,14.0,9,0
60,196,0.2003,cat,cat,1111_eid_hum_0_cat_40_n02123045_2025.png,14.0,9,0
60,197,0.3504,truck,truck,1111_eid_hum_16_truck_40_n03796401_15756.png,14.0,9,16
60,198,0.3005,car,car,1111_eid_hum_4_car_40_n02814533_32461.png,14.0,9,4
60,199,0.7838,bicycle,bicycle,1111_eid_hum_4_bicycle_40_n03792782_3631.png,14.0,9,4
60,200,0.284,car,car,1111_eid_hum_0_car_40_n02814533_83068.png,14.0,9,0
60,201,0.8337,dog,dog,1111_eid_hum_0_dog_40_n02112706_2952.png,14.0,10,0
60,202,0.3339,boat,boat,1111_eid_hum_0_boat_40_n04612504_30742.png,14.0,10,0
60,203,0.3505,bicycle,bicycle,1111_eid_hum_4_bicycle_40_n02835271_8273.png,14.0,10,4
60,204,0.3004,car,car,1111_eid_hum_8_car_40_n04285008_10287.png,14.0,10,8
60,205,0.667,bottle,bottle,1111_eid_hum_8_bottle_40_n04591713_5754.png,14.0,10,8
60,206,0.3338,bird,bird,1111_eid_hum_0_bird_40_n01530575_4260.png,14.0,10,0
60,207,1.55,dog,dog,1111_eid_hum_16_dog_40_n02107142_1550.png,14.0,10,16
60,208,1.2336,clock,clock,1111_eid_hum_16_clock_40_n03196217_8614.png,14.0,10,16
60,209,0.9335,bird,boat,1111_eid_hum_8_boat_40_n04273569_13091.png,14.0,10,8
60,210,0.7005,dog,dog,1111_eid_hum_0_dog_40_n02097130_1834.png,14.0,10,0
60,211,0.85,dog,dog,1111_eid_hum_16_dog_40_n02096437_6439.png,14.0,10,16
60,212,2.9332,chair,oven,1111_eid_hum_16_oven_40_n04111531_23215.png,14.0,10,16
60,213,0.4504,bird,bird,1111_eid_hum_4_bird_40_n02018795_11949.png,14.0,10,4
60,214,1.0171,cat,bottle,1111_eid_hum_8_bottle_40_n04560804_11601.png,14.0,10,8
60,215,1.0338,boat,knife,1111_eid_hum_8_knife_40_n03041632_17338.png,14.0,10,8
60,216,1.2001,boat,elephant,1111_eid_hum_16_elephant_40_n02504013_10462.png,14.0,10,16
60,217,0.3503,boat,boat,1111_eid_hum_4_boat_40_n04612504_7166.png,14.0,10,4
60,218,1.0671,oven,oven,1111_eid_hum_4_oven_40_n04111531_10011.png,14.0,10,4
60,219,0.2337,elephant,elephant,1111_eid_hum_4_elephant_40_n02504458_1998.png,14.0,10,4
60,220,0.23399999999999999,bear,bear,1111_eid_hum_0_bear_40_n02132136_5184.png,14.0,10,0
60,221,0.2673,bear,bear,1111_eid_hum_0_bear_40_n02132136_6787.png,14.0,11,0
60,222,0.3671,airplane,airplane,1111_eid_hum_0_airplane_40_n02690373_4243.png,14.0,11,0
60,223,0.4505,bird,bird,1111_eid_hum_4_bird_40_n02025239_22501.png,14.0,11,4
60,224,0.4004,knife,knife,1111_eid_hum_4_knife_40_n03041632_26340.png,14.0,11,4
60,225,0.5168,airplane,airplane,1111_eid_hum_8_airplane_40_n02690373_1837.png,14.0,11,8
60,226,0.5842,boat,boat,1111_eid_hum_16_boat_40_n02951358_4826.png,14.0,11,16
60,227,5.5165,boat,dog,1111_eid_hum_16_dog_40_n02100877_20916.png,14.0,11,16
60,228,0.3173,elephant,elephant,1111_eid_hum_8_elephant_40_n02504458_1848.png,14.0,11,8
60,229,0.4337,truck,truck,1111_eid_hum_4_truck_40_n04467665_1077.png,14.0,11,4
60,230,0.6171,boat,boat,1111_eid_hum_8_boat_40_n03344393_302.png,14.0,11,8
60,231,0.5838,bird,bicycle,1111_eid_hum_16_bicycle_40_n03792782_3047.png,14.0,11,16
60,232,0.3503,bird,bird,1111_eid_hum_16_bird_40_n02037110_11551.png,14.0,11,16
60,233,1.2172,bottle,bottle,1111_eid_hum_4_bottle_40_n04560804_13773.png,14.0,11,4
60,234,0.3504,keyboard,keyboard,1111_eid_hum_0_keyboard_40_n03085013_1483.png,14.0,11,0
60,235,0.8172,elephant,chair,1111_eid_hum_16_chair_40_n04429376_3620.png,14.0,11,16
60,236,8.6163,oven,clock,1111_eid_hum_8_clock_40_n02708093_462.png,14.0,11,8
60,237,5.2164,bottle,chair,1111_eid_hum_8_chair_40_n02791124_141.png,14.0,11,8
60,238,0.3338,clock,clock,1111_eid_hum_4_clock_40_n04548280_1438.png,14.0,11,4
60,239,0.33399999999999996,airplane,airplane,1111_eid_hum_0_airplane_40_n02690373_19152.png,14.0,11,0
60,240,0.2837,bear,bear,1111_eid_hum_0_bear_40_n02132136_11149.png,14.0,11,0
60,241,0.4505,knife,knife,1111_eid_hum_0_knife_40_n03041632_11285.png,14.0,13,0
60,242,0.5171,bear,bear,1111_eid_hum_4_bear_40_n02134084_10224.png,14.0,13,4
60,243,0.2503,cat,cat,1111_eid_hum_4_cat_40_n02123597_3037.png,14.0,13,4
60,244,0.5003,bird,bird,1111_eid_hum_16_bird_40_n01532829_22520.png,14.0,13,16
60,245,0.6501,airplane,airplane,1111_eid_hum_8_airplane_40_n02690373_3874.png,14.0,13,8
60,246,4.0995,oven,oven,1111_eid_hum_0_oven_40_n04111531_2371.png,14.0,13,0
60,247,0.6005,bicycle,bicycle,1111_eid_hum_16_bicycle_40_n02835271_15925.png,14.0,13,16
60,248,0.2835,bear,dog,1111_eid_hum_0_dog_40_n02106382_14862.png,14.0,13,0
60,249,5.4665,chair,clock,1111_eid_hum_16_clock_40_n04548280_8585.png,14.0,13,16
60,250,0.2174,car,car,1111_eid_hum_0_car_40_n03100240_24331.png,14.0,13,0
60,251,0.4005,dog,dog,1111_eid_hum_8_dog_40_n02105056_9209.png,14.0,13,8
60,252,0.3504,cat,cat,1111_eid_hum_8_cat_40_n02123045_8774.png,14.0,13,8
60,253,1.1336,bicycle,chair,1111_eid_hum_16_chair_40_n03376595_2566.png,14.0,13,16
60,254,0.6337,bird,bird,1111_eid_hum_8_bird_40_n01601694_13334.png,14.0,13,8
60,255,0.2838,cat,cat,1111_eid_hum_4_cat_40_n02123394_2903.png,14.0,13,4
60,256,0.6335,elephant,chair,1111_eid_hum_16_chair_40_n04429376_10128.png,14.0,13,16
60,257,0.4006,knife,knife,1111_eid_hum_8_knife_40_n03041632_105081.png,14.0,13,8
60,258,0.2506,elephant,elephant,1111_eid_hum_4_elephant_40_n02504458_5176.png,14.0,13,4
60,259,0.667,bicycle,bicycle,1111_eid_hum_4_bicycle_40_n03792782_17337.png,14.0,13,4
60,260,0.2839,bicycle,bicycle,1111_eid_hum_0_bicycle_40_n02835271_1299.png,14.0,13,0
60,261,0.1668,airplane,airplane,1111_eid_hum_0_airplane_40_n02690373_14117.png,14.0,14,0
60,262,0.1671,car,car,1111_eid_hum_4_car_40_n03100240_6805.png,14.0,14,4
60,263,0.1838,airplane,airplane,1111_eid_hum_4_airplane_40_n02690373_3912.png,14.0,14,4
60,264,0.3004,dog,dog,1111_eid_hum_4_dog_40_n02105056_328.png,14.0,14,4
60,265,0.4672,boat,boat,1111_eid_hum_0_boat_40_n02951358_14612.png,14.0,14,0
60,266,0.7172,bear,bear,1111_eid_hum_8_bear_40_n02134418_4895.png,14.0,14,8
60,267,0.5004,bear,elephant,1111_eid_hum_16_elephant_40_n02504458_1844.png,14.0,14,16
60,268,0.5006,car,truck,1111_eid_hum_16_truck_40_n03417042_11.png,14.0,14,16
60,269,1.1337,clock,clock,1111_eid_hum_8_clock_40_n02708093_2843.png,14.0,14,8
60,270,0.2673,bear,bear,1111_eid_hum_8_bear_40_n02133161_2137.png,14.0,14,8
60,271,4.6331,clock,bottle,1111_eid_hum_8_bottle_40_n03983396_11337.png,14.0,14,8
60,272,0.7837,bird,bird,1111_eid_hum_16_bird_40_n01530575_6098.png,14.0,14,16
60,273,0.5669,boat,clock,1111_eid_hum_8_clock_40_n03196217_5478.png,14.0,14,8
60,274,0.8337,bird,boat,1111_eid_hum_16_boat_40_n03344393_6758.png,14.0,14,16
60,275,1.7505,oven,oven,1111_eid_hum_16_oven_40_n04111531_326.png,14.0,14,16
60,276,0.2837,keyboard,keyboard,1111_eid_hum_4_keyboard_40_n04505470_6272.png,14.0,14,4
60,277,0.5837,chair,chair,1111_eid_hum_4_chair_40_n03376595_6837.png,14.0,14,4
60,278,0.9837,oven,oven,1111_eid_hum_0_oven_40_n04111531_9490.png,14.0,14,0
60,279,1.4669,knife,knife,1111_eid_hum_0_knife_40_n03041632_83826.png,14.0,14,0
60,280,2.017,cat,cat,1111_eid_hum_0_cat_40_n02123159_2684.png,14.0,14,0
60,281,0.5169,knife,knife,1111_eid_hum_0_knife_40_n03041632_47410.png,14.0,15,0
60,282,0.3505,dog,dog,1111_eid_hum_4_dog_40_n02110806_2586.png,14.0,15,4
60,283,0.284,chair,chair,1111_eid_hum_4_chair_40_n04429376_18127.png,14.0,15,4
60,284,0.5673,airplane,airplane,1111_eid_hum_8_airplane_40_n02690373_3993.png,14.0,15,8
60,285,0.23399999999999999,clock,clock,1111_eid_hum_4_clock_40_n04548280_3997.png,14.0,15,4
60,286,1.8668,bear,truck,1111_eid_hum_16_truck_40_n03796401_14381.png,14.0,15,16
60,287,0.8835,truck,truck,1111_eid_hum_0_truck_40_n03796401_19114.png,14.0,15,0
60,288,0.2506,bear,bear,1111_eid_hum_8_bear_40_n02134418_832.png,14.0,15,8
60,289,2.0667,bottle,bottle,1111_eid_hum_8_bottle_40_n04579145_1302.png,14.0,15,8
60,290,0.1835,chair,chair,1111_eid_hum_0_chair_40_n04099969_20900.png,14.0,15,0
60,291,0.3005,car,car,1111_eid_hum_16_car_40_n02814533_23512.png,14.0,15,16
60,292,3.7501,knife,knife,1111_eid_hum_16_knife_40_n03041632_21723.png,14.0,15,16
60,293,2.5832,dog,bottle,1111_eid_hum_16_bottle_40_n02823428_825.png,14.0,15,16
60,294,4.6168,knife,bird,1111_eid_hum_16_bird_40_n02007558_45529.png,14.0,15,16
60,295,0.3169,bottle,bottle,1111_eid_hum_0_bottle_40_n04591713_595.png,14.0,15,0
60,296,0.2671,elephant,elephant,1111_eid_hum_8_elephant_40_n02504013_1916.png,14.0,15,8
60,297,0.3505,elephant,elephant,1111_eid_hum_8_elephant_40_n02504458_7408.png,14.0,15,8
60,298,0.2005,car,car,1111_eid_hum_0_car_40_n02814533_1165.png,14.0,15,0
60,299,0.5670000000000001,boat,boat,1111_eid_hum_4_boat_40_n02951358_34441.png,14.0,15,4
60,300,0.2671,keyboard,keyboard,1111_eid_hum_4_keyboard_40_n03085013_6978.png,14.0,15,4
60,301,0.5171,bird,bird,1111_eid_hum_0_bird_40_n01819313_3893.png,14.0,16,0
60,302,0.23399999999999999,bear,bear,1111_eid_hum_4_bear_40_n02133161_10314.png,14.0,16,4
60,303,0.467,clock,clock,1111_eid_hum_4_clock_40_n03196217_5252.png,14.0,16,4
60,304,0.2005,keyboard,keyboard,1111_eid_hum_4_keyboard_40_n03085013_6038.png,14.0,16,4
60,305,0.3335,truck,truck,1111_eid_hum_0_truck_40_n03796401_17504.png,14.0,16,0
60,306,0.3173,bicycle,bicycle,1111_eid_hum_8_bicycle_40_n03792782_33855.png,14.0,16,8
60,307,0.8839,bottle,bottle,1111_eid_hum_0_bottle_40_n04560804_12278.png,14.0,16,0
60,308,0.2005,keyboard,keyboard,1111_eid_hum_8_keyboard_40_n04505470_933.png,14.0,16,8
60,309,0.4669,boat,boat,1111_eid_hum_16_boat_40_n02951358_5718.png,14.0,16,16
60,310,0.1671,cat,cat,1111_eid_hum_8_cat_40_n02124075_8754.png,14.0,16,8
60,311,0.2008,dog,dog,1111_eid_hum_4_dog_40_n02101388_2075.png,14.0,16,4
60,312,0.2672,car,car,1111_eid_hum_8_car_40_n02814533_27150.png,14.0,16,8
60,313,0.5004,boat,boat,1111_eid_hum_8_boat_40_n02951358_12866.png,14.0,16,8
60,314,1.9669,keyboard,keyboard,1111_eid_hum_16_keyboard_40_n04505470_1874.png,14.0,16,16
60,315,0.3505,bicycle,bicycle,1111_eid_hum_16_bicycle_40_n02835271_7873.png,14.0,16,16
60,316,0.7003,dog,oven,1111_eid_hum_16_oven_40_n04111531_7034.png,14.0,16,16
60,317,0.4838,boat,airplane,1111_eid_hum_16_airplane_40_n02690373_2435.png,14.0,16,16
60,318,0.9504,oven,oven,1111_eid_hum_0_oven_40_n04111531_9844.png,14.0,16,0
60,319,0.3008,truck,truck,1111_eid_hum_0_truck_40_n03417042_12133.png,14.0,16,0
60,320,0.3004,elephant,elephant,1111_eid_hum_4_elephant_40_n02504013_19694.png,14.0,16,4
63,1,0.4837,bicycle,bicycle,1111_eid_hum_0_bicycle_40_n03792782_1030.png,15.0,1,0
63,2,0.3341,cat,cat,1111_eid_hum_4_cat_40_n02123045_9341.png,15.0,1,4
63,3,0.8336,keyboard,keyboard,1111_eid_hum_0_keyboard_40_n04505470_2570.png,15.0,1,0
63,4,4.1164,truck,truck,1111_eid_hum_8_truck_40_n03417042_10300.png,15.0,1,8
63,5,3.0667,keyboard,keyboard,1111_eid_hum_16_keyboard_40_n03085013_19436.png,15.0,1,16
63,6,16.965,bottle,bottle,1111_eid_hum_16_bottle_40_n04560804_9813.png,15.0,1,16
63,7,0.4837,airplane,airplane,1111_eid_hum_16_airplane_40_n02690373_1161.png,15.0,1,16
63,8,0.317,cat,cat,1111_eid_hum_8_cat_40_n02124075_3533.png,15.0,1,8
63,9,1.0170000000000001,car,car,1111_eid_hum_0_car_40_n02814533_82925.png,15.0,1,0
63,10,6.2662,boat,bird,1111_eid_hum_4_bird_40_n01537544_2772.png,15.0,1,4
63,11,0.3173,bicycle,bicycle,1111_eid_hum_8_bicycle_40_n02835271_15038.png,15.0,1,8
63,12,0.9836,truck,truck,1111_eid_hum_8_truck_40_n03417042_12486.png,15.0,1,8
63,13,1.1006,bicycle,bicycle,1111_eid_hum_4_bicycle_40_n03792782_14216.png,15.0,1,4
63,14,3.1666,boat,airplane,1111_eid_hum_16_airplane_40_n02690373_6853.png,15.0,1,16
63,15,0.4338,truck,truck,1111_eid_hum_8_truck_40_n03417042_14000.png,15.0,1,8
63,16,0.2505,airplane,airplane,1111_eid_hum_0_airplane_40_n02690373_6231.png,15.0,1,0
63,17,10.066,airplane,boat,1111_eid_hum_16_boat_40_n03344393_7433.png,15.0,1,16
63,18,0.8006,bear,bear,1111_eid_hum_0_bear_40_n02134084_19407.png,15.0,1,0
63,19,5.7829999999999995,cat,oven,1111_eid_hum_4_oven_40_n04111531_1054.png,15.0,1,4
63,20,7.2327,knife,knife,1111_eid_hum_4_knife_40_n03041632_48071.png,15.0,1,4
63,21,0.2835,cat,cat,1111_eid_hum_0_cat_40_n02123159_3226.png,15.0,2,0
63,22,6.9999,oven,knife,1111_eid_hum_4_knife_40_n03041632_11475.png,15.0,2,4
63,23,1.6,bottle,bottle,1111_eid_hum_0_bottle_40_n04591713_6238.png,15.0,2,0
63,24,0.3844,elephant,elephant,1111_eid_hum_4_elephant_40_n02504013_8385.png,15.0,2,4
63,25,0.3171,cat,cat,1111_eid_hum_16_cat_40_n02124075_20957.png,15.0,2,16
63,26,0.5175,bear,bear,1111_eid_hum_8_bear_40_n02134084_34728.png,15.0,2,8
63,27,0.3675,bird,bird,1111_eid_hum_0_bird_40_n01818515_7890.png,15.0,2,0
63,28,1.2673,bicycle,bicycle,1111_eid_hum_16_bicycle_40_n03792782_692.png,15.0,2,16
63,29,0.9169,truck,truck,1111_eid_hum_8_truck_40_n03417042_1656.png,15.0,2,8
63,30,1.0001,keyboard,keyboard,1111_eid_hum_8_keyboard_40_n03085013_4160.png,15.0,2,8
63,31,5.7495,bird,knife,1111_eid_hum_8_knife_40_n03041632_47743.png,15.0,2,8
63,32,0.3504,truck,truck,1111_eid_hum_8_truck_40_n03796401_4495.png,15.0,2,8
63,33,0.3503,boat,boat,1111_eid_hum_0_boat_40_n04612504_8942.png,15.0,2,0
63,34,7.5665,boat,clock,1111_eid_hum_16_clock_40_n03196217_585.png,15.0,2,16
63,35,0.7835,boat,boat,1111_eid_hum_16_boat_40_n04273569_1141.png,15.0,2,16
63,36,0.4173,cat,cat,1111_eid_hum_0_cat_40_n02123045_964.png,15.0,2,0
63,37,13.4154,clock,bottle,1111_eid_hum_16_bottle_40_n03983396_4843.png,15.0,2,16
63,38,0.4674,boat,boat,1111_eid_hum_4_boat_40_n02951358_31835.png,15.0,2,4
63,39,1.0004,bottle,bottle,1111_eid_hum_4_bottle_40_n04560804_15228.png,15.0,2,4
63,40,1.2503,chair,chair,1111_eid_hum_4_chair_40_n04429376_9212.png,15.0,2,4
63,41,0.1505,dog,dog,1111_eid_hum_4_dog_40_n02098105_1796.png,15.0,3,4
63,42,0.6503,bear,bear,1111_eid_hum_4_bear_40_n02134418_703.png,15.0,3,4
63,43,1.7003,boat,boat,1111_eid_hum_4_boat_40_n02951358_32429.png,15.0,3,4
63,44,0.6673,elephant,elephant,1111_eid_hum_16_elephant_40_n02504458_3140.png,15.0,3,16
63,45,2.7172,boat,car,1111_eid_hum_16_car_40_n04285008_88.png,15.0,3,16
63,46,0.5338,dog,dog,1111_eid_hum_0_dog_40_n02099712_5781.png,15.0,3,0
63,47,0.5504,chair,chair,1111_eid_hum_0_chair_40_n03376595_4469.png,15.0,3,0
63,48,0.5834,elephant,elephant,1111_eid_hum_8_elephant_40_n02504458_3953.png,15.0,3,8
63,49,0.5675,elephant,elephant,1111_eid_hum_16_elephant_40_n02504013_3141.png,15.0,3,16
63,50,0.4337,car,car,1111_eid_hum_4_car_40_n02814533_18458.png,15.0,3,4
63,51,1.9504,elephant,bear,1111_eid_hum_16_bear_40_n02134418_4886.png,15.0,3,16
63,52,4.9165,bottle,chair,1111_eid_hum_16_chair_40_n04099969_13056.png,15.0,3,16
63,53,1.067,boat,airplane,1111_eid_hum_8_airplane_40_n02690373_5870.png,15.0,3,8
63,54,1.4501,elephant,oven,1111_eid_hum_8_oven_40_n04111531_18592.png,15.0,3,8
63,55,0.484,airplane,airplane,1111_eid_hum_0_airplane_40_n02690373_1277.png,15.0,3,0
63,56,0.9503,clock,bicycle,1111_eid_hum_8_bicycle_40_n02835271_8081.png,15.0,3,8
63,57,1.367,bird,bird,1111_eid_hum_8_bird_40_n02033041_6633.png,15.0,3,8
63,58,8.5495,bicycle,oven,1111_eid_hum_4_oven_40_n04111531_2930.png,15.0,3,4
63,59,0.4174,knife,knife,1111_eid_hum_0_knife_40_n03041632_24277.png,15.0,3,0
63,60,6.6498,clock,clock,1111_eid_hum_0_clock_40_n04548280_7490.png,15.0,3,0
63,61,1.4007,bird,bird,1111_eid_hum_4_bird_40_n02007558_10725.png,15.0,4,4
63,62,0.2005,dog,dog,1111_eid_hum_0_dog_40_n02090721_1456.png,15.0,4,0
63,63,0.3005,chair,chair,1111_eid_hum_0_chair_40_n03376595_4309.png,15.0,4,0
63,64,0.217,dog,dog,1111_eid_hum_8_dog_40_n02108000_324.png,15.0,4,8
63,65,0.2501,keyboard,keyboard,1111_eid_hum_4_keyboard_40_n03085013_2122.png,15.0,4,4
63,66,4.2497,bottle,clock,1111_eid_hum_16_clock_40_n04548280_711.png,15.0,4,16
63,67,0.3669,dog,dog,1111_eid_hum_16_dog_40_n02110806_16707.png,15.0,4,16
63,68,1.2004,oven,oven,1111_eid_hum_8_oven_40_n04111531_18645.png,15.0,4,8
63,69,0.3837,bird,bird,1111_eid_hum_4_bird_40_n01531178_8282.png,15.0,4,4
63,70,2.017,keyboard,keyboard,1111_eid_hum_8_keyboard_40_n04505470_1833.png,15.0,4,8
63,71,0.4837,car,car,1111_eid_hum_16_car_40_n02814533_89061.png,15.0,4,16
63,72,0.4004,clock,clock,1111_eid_hum_4_clock_40_n02708093_3459.png,15.0,4,4
63,73,0.2838,knife,knife,1111_eid_hum_8_knife_40_n03041632_25022.png,15.0,4,8
63,74,0.2175,bear,bear,1111_eid_hum_0_bear_40_n02133161_1498.png,15.0,4,0
63,75,5.5833,chair,chair,1111_eid_hum_16_chair_40_n04429376_42324.png,15.0,4,16
63,76,0.9504,car,car,1111_eid_hum_8_car_40_n03100240_418.png,15.0,4,8
63,77,0.8001,bottle,bottle,1111_eid_hum_16_bottle_40_n04591713_2718.png,15.0,4,16
63,78,0.4671,elephant,elephant,1111_eid_hum_0_elephant_40_n02504458_1735.png,15.0,4,0
63,79,5.3333,oven,oven,1111_eid_hum_4_oven_40_n04111531_11530.png,15.0,4,4
63,80,0.8668,clock,clock,1111_eid_hum_0_clock_40_n03196217_4004.png,15.0,4,0
63,81,1.383,bottle,bottle,1111_eid_hum_0_bottle_40_n03937543_2357.png,15.0,8,0
63,82,0.7502,chair,chair,1111_eid_hum_4_chair_40_n04429376_19101.png,15.0,8,4
63,83,0.3506,keyboard,keyboard,1111_eid_hum_4_keyboard_40_n03085013_24455.png,15.0,8,4
63,84,1.217,truck,truck,1111_eid_hum_16_truck_40_n03417042_16389.png,15.0,8,16
63,85,1.7169,truck,truck,1111_eid_hum_16_truck_40_n03417042_19905.png,15.0,8,16
63,86,0.5172,car,car,1111_eid_hum_16_car_40_n04285008_9470.png,15.0,8,16
63,87,1.1504,bicycle,bicycle,1111_eid_hum_8_bicycle_40_n03792782_3467.png,15.0,8,8
63,88,0.3505,bear,bear,1111_eid_hum_16_bear_40_n02134084_5027.png,15.0,8,16
63,89,0.3837,bird,bird,1111_eid_hum_0_bird_40_n02037110_8732.png,15.0,8,0
63,90,1.0169,oven,oven,1111_eid_hum_0_oven_40_n04111531_10306.png,15.0,8,0
63,91,0.3834,keyboard,keyboard,1111_eid_hum_16_keyboard_40_n03085013_25181.png,15.0,8,16
63,92,0.4837,bear,bear,1111_eid_hum_4_bear_40_n02134418_4041.png,15.0,8,4
63,93,0.4338,bird,bird,1111_eid_hum_8_bird_40_n02009229_5962.png,15.0,8,8
63,94,0.9334,boat,boat,1111_eid_hum_8_boat_40_n02951358_34051.png,15.0,8,8
63,95,0.4338,car,car,1111_eid_hum_8_car_40_n04285008_3280.png,15.0,8,8
63,96,13.1656,dog,oven,1111_eid_hum_4_oven_40_n04111531_15649.png,15.0,8,4
63,97,0.4502,dog,dog,1111_eid_hum_8_dog_40_n02088632_2814.png,15.0,8,8
63,98,0.2835,airplane,airplane,1111_eid_hum_4_airplane_40_n02690373_4728.png,15.0,8,4
63,99,1.3338,bicycle,bicycle,1111_eid_hum_0_bicycle_40_n03792782_47774.png,15.0,8,0
63,100,1.0337,bicycle,bicycle,1111_eid_hum_0_bicycle_40_n02835271_13131.png,15.0,8,0
63,101,0.1673,elephant,elephant,1111_eid_hum_4_elephant_40_n02504458_4.png,15.0,5,4
63,102,0.1675,cat,cat,1111_eid_hum_0_cat_40_n02123159_6505.png,15.0,5,0
63,103,0.4337,truck,truck,1111_eid_hum_0_truck_40_n04467665_11776.png,15.0,5,0
63,104,0.4672,airplane,airplane,1111_eid_hum_4_airplane_40_n02690373_6999.png,15.0,5,4
63,105,1.9005,elephant,bottle,1111_eid_hum_16_bottle_40_n04591713_2024.png,15.0,5,16
63,106,0.3501,cat,cat,1111_eid_hum_16_cat_40_n02123394_2690.png,15.0,5,16
63,107,5.8165,dog,dog,1111_eid_hum_8_dog_40_n02101556_7442.png,15.0,5,8
63,108,0.3506,dog,dog,1111_eid_hum_8_dog_40_n02102318_11816.png,15.0,5,8
63,109,1.0003,bird,bird,1111_eid_hum_16_bird_40_n01860187_6891.png,15.0,5,16
63,110,0.6837,cat,cat,1111_eid_hum_16_cat_40_n02123597_5017.png,15.0,5,16
63,111,0.4836,truck,truck,1111_eid_hum_4_truck_40_n03417042_10043.png,15.0,5,4
63,112,1.8007,bird,bird,1111_eid_hum_8_bird_40_n01843383_8077.png,15.0,5,8
63,113,0.4004,clock,clock,1111_eid_hum_0_clock_40_n03196217_4417.png,15.0,5,0
63,114,0.3005,clock,clock,1111_eid_hum_4_clock_40_n04548280_11068.png,15.0,5,4
63,115,1.617,keyboard,keyboard,1111_eid_hum_8_keyboard_40_n04505470_1430.png,15.0,5,8
63,116,0.33399999999999996,cat,cat,1111_eid_hum_16_cat_40_n02124075_862.png,15.0,5,16
63,117,1.1672,bottle,bottle,1111_eid_hum_8_bottle_40_n04560804_19872.png,15.0,5,8
63,118,0.4505,clock,clock,1111_eid_hum_0_clock_40_n03196217_3943.png,15.0,5,0
63,119,2.9333,oven,knife,1111_eid_hum_0_knife_40_n03041632_24114.png,15.0,5,0
63,120,0.6337,boat,boat,1111_eid_hum_4_boat_40_n02951358_8194.png,15.0,5,4
63,121,0.4836,boat,boat,1111_eid_hum_0_boat_40_n02951358_15424.png,15.0,6,0
63,122,0.2505,elephant,elephant,1111_eid_hum_0_elephant_40_n02504458_5561.png,15.0,6,0
63,123,0.4173,car,car,1111_eid_hum_4_car_40_n03100240_6954.png,15.0,6,4
63,124,0.6005,truck,truck,1111_eid_hum_0_truck_40_n03417042_23440.png,15.0,6,0
63,125,0.8666,boat,keyboard,1111_eid_hum_16_keyboard_40_n04505470_2115.png,15.0,6,16
63,126,0.7169,dog,dog,1111_eid_hum_16_dog_40_n02113624_1203.png,15.0,6,16
63,127,0.6339,boat,boat,1111_eid_hum_0_boat_40_n02951358_19768.png,15.0,6,0
63,128,0.2506,boat,boat,1111_eid_hum_8_boat_40_n02951358_2853.png,15.0,6,8
63,129,0.6504,keyboard,keyboard,1111_eid_hum_8_keyboard_40_n03085013_17762.png,15.0,6,8
63,130,0.7004,boat,airplane,1111_eid_hum_8_airplane_40_n02690373_2024.png,15.0,6,8
63,131,0.8837,clock,clock,1111_eid_hum_0_clock_40_n04548280_2518.png,15.0,6,0
63,132,0.584,boat,elephant,1111_eid_hum_8_elephant_40_n02504458_7013.png,15.0,6,8
63,133,15.0316,knife,knife,1111_eid_hum_16_knife_40_n03041632_3210.png,15.0,6,16
63,134,0.4504,car,car,1111_eid_hum_16_car_40_n04285008_2789.png,15.0,6,16
63,135,0.3169,airplane,airplane,1111_eid_hum_4_airplane_40_n02690373_18693.png,15.0,6,4
63,136,0.4668,clock,clock,1111_eid_hum_8_clock_40_n02708093_1431.png,15.0,6,8
63,137,1.4839,car,oven,1111_eid_hum_16_oven_40_n04111531_1229.png,15.0,6,16
63,138,0.4675,airplane,airplane,1111_eid_hum_4_airplane_40_n02690373_1071.png,15.0,6,4
63,139,0.5837,bottle,bottle,1111_eid_hum_4_bottle_40_n04560804_32398.png,15.0,6,4
63,140,0.3670000000000001,chair,chair,1111_eid_hum_4_chair_40_n04099969_2267.png,15.0,6,4
63,141,0.3176,bicycle,bicycle,1111_eid_hum_0_bicycle_40_n03792782_23560.png,15.0,7,0
63,142,3.3503,bicycle,oven,1111_eid_hum_0_oven_40_n04111531_14611.png,15.0,7,0
63,143,1.0502,bottle,bottle,1111_eid_hum_4_bottle_40_n02823428_7033.png,15.0,7,4
63,144,2.6499,cat,bear,1111_eid_hum_16_bear_40_n02132136_1934.png,15.0,7,16
63,145,14.9819,boat,oven,1111_eid_hum_16_oven_40_n04111531_21973.png,15.0,7,16
63,146,1.0339,airplane,bicycle,1111_eid_hum_16_bicycle_40_n02835271_276.png,15.0,7,16
63,147,0.9669,knife,knife,1111_eid_hum_16_knife_40_n03041632_11797.png,15.0,7,16
63,148,0.3004,chair,chair,1111_eid_hum_0_chair_40_n03376595_820.png,15.0,7,0
63,149,0.4505,car,car,1111_eid_hum_4_car_40_n02814533_75974.png,15.0,7,4
63,150,0.3174,cat,cat,1111_eid_hum_8_cat_40_n02124075_9716.png,15.0,7,8
63,151,0.3169,chair,chair,1111_eid_hum_8_chair_40_n04429376_8395.png,15.0,7,8
63,152,0.5173,bear,bear,1111_eid_hum_8_bear_40_n02134084_6343.png,15.0,7,8
63,153,5.632999999999999,knife,knife,1111_eid_hum_4_knife_40_n03041632_4808.png,15.0,7,4
63,154,3.5333,bird,bird,1111_eid_hum_8_bird_40_n01537544_15048.png,15.0,7,8
63,155,0.9670000000000001,car,knife,1111_eid_hum_4_knife_40_n03041632_14224.png,15.0,7,4
63,156,0.6668,chair,chair,1111_eid_hum_8_chair_40_n02791124_9124.png,15.0,7,8
63,157,3.6334,bear,bear,1111_eid_hum_16_bear_40_n02132136_3169.png,15.0,7,16
63,158,5.4997,oven,dog,1111_eid_hum_4_dog_40_n02112018_370.png,15.0,7,4
63,159,0.2338,elephant,elephant,1111_eid_hum_0_elephant_40_n02504013_6660.png,15.0,7,0
63,160,0.1838,elephant,elephant,1111_eid_hum_0_elephant_40_n02504458_4336.png,15.0,7,0
63,161,0.2005,keyboard,keyboard,1111_eid_hum_0_keyboard_40_n04505470_4906.png,15.0,12,0
63,162,0.3838,truck,truck,1111_eid_hum_4_truck_40_n03417042_28078.png,15.0,12,4
63,163,1.1169,bicycle,bicycle,1111_eid_hum_4_bicycle_40_n03792782_11597.png,15.0,12,4
63,164,0.3008,car,car,1111_eid_hum_0_car_40_n03100240_5489.png,15.0,12,0
63,165,1.2006,knife,knife,1111_eid_hum_8_knife_40_n03041632_31909.png,15.0,12,8
63,166,4.3334,dog,knife,1111_eid_hum_16_knife_40_n03041632_15444.png,15.0,12,16
63,167,0.2506,chair,chair,1111_eid_hum_0_chair_40_n04099969_18182.png,15.0,12,0
63,168,0.7001,chair,chair,1111_eid_hum_8_chair_40_n04099969_2398.png,15.0,12,8
63,169,0.8170000000000001,bird,bear,1111_eid_hum_16_bear_40_n02134084_4612.png,15.0,12,16
63,170,0.3006,keyboard,keyboard,1111_eid_hum_0_keyboard_40_n03085013_24618.png,15.0,12,0
63,171,1.5836,clock,clock,1111_eid_hum_16_clock_40_n03196217_8943.png,15.0,12,16
63,172,0.6172,car,car,1111_eid_hum_8_car_40_n04285008_7096.png,15.0,12,8
63,173,0.8506,car,clock,1111_eid_hum_8_clock_40_n03196217_6809.png,15.0,12,8
63,174,2.0671,cat,cat,1111_eid_hum_16_cat_40_n02124075_14094.png,15.0,12,16
63,175,0.7172,airplane,airplane,1111_eid_hum_16_airplane_40_n02690373_2070.png,15.0,12,16
63,176,0.3006,bear,bear,1111_eid_hum_4_bear_40_n02134084_2004.png,15.0,12,4
63,177,0.3676,cat,cat,1111_eid_hum_8_cat_40_n02123159_3330.png,15.0,12,8
63,178,3.3333,keyboard,bottle,1111_eid_hum_4_bottle_40_n03937543_3759.png,15.0,12,4
63,179,1.2339,elephant,elephant,1111_eid_hum_0_elephant_40_n02504458_4954.png,15.0,12,0
63,180,1.0002,truck,truck,1111_eid_hum_4_truck_40_n03796401_4309.png,15.0,12,4
63,181,0.1338,cat,cat,1111_eid_hum_0_cat_40_n02123045_2025.png,15.0,9,0
63,182,1.5502,bottle,bottle,1111_eid_hum_0_bottle_40_n04591713_7221.png,15.0,9,0
63,183,0.5505,car,car,1111_eid_hum_0_car_40_n02814533_83068.png,15.0,9,0
63,184,0.5336,elephant,elephant,1111_eid_hum_16_elephant_40_n02504013_868.png,15.0,9,16
63,185,0.9506,cat,cat,1111_eid_hum_4_cat_40_n02124075_8351.png,15.0,9,4
63,186,5.2998,boat,knife,1111_eid_hum_16_knife_40_n03041632_32785.png,15.0,9,16
63,187,1.9339,oven,oven,1111_eid_hum_8_oven_40_n04111531_4.png,15.0,9,8
63,188,0.3337,car,car,1111_eid_hum_4_car_40_n02814533_32461.png,15.0,9,4
63,189,2.4336,keyboard,keyboard,1111_eid_hum_16_keyboard_40_n03085013_24577.png,15.0,9,16
63,190,6.382999999999999,airplane,oven,1111_eid_hum_8_oven_40_n04111531_9712.png,15.0,9,8
63,191,0.3835,bicycle,bicycle,1111_eid_hum_8_bicycle_40_n03792782_52601.png,15.0,9,8
63,192,0.6506,chair,chair,1111_eid_hum_8_chair_40_n02791124_2470.png,15.0,9,8
63,193,4.3505,airplane,airplane,1111_eid_hum_16_airplane_40_n02690373_8789.png,15.0,9,16
63,194,0.867,truck,truck,1111_eid_hum_4_truck_40_n04467665_50932.png,15.0,9,4
63,195,0.6506,bicycle,bicycle,1111_eid_hum_4_bicycle_40_n03792782_3631.png,15.0,9,4
63,196,6.5829999999999975,knife,oven,1111_eid_hum_8_oven_40_n04111531_13247.png,15.0,9,8
63,197,0.8835,truck,truck,1111_eid_hum_16_truck_40_n03796401_15756.png,15.0,9,16
63,198,0.4006,cat,cat,1111_eid_hum_4_cat_40_n02123394_2364.png,15.0,9,4
63,199,0.6675,bird,bird,1111_eid_hum_0_bird_40_n02027492_2004.png,15.0,9,0
63,200,0.7005,keyboard,keyboard,1111_eid_hum_0_keyboard_40_n04505470_3947.png,15.0,9,0
63,201,0.1669,bicycle,bicycle,1111_eid_hum_4_bicycle_40_n02835271_8273.png,15.0,10,4
63,202,0.2836,boat,boat,1111_eid_hum_0_boat_40_n04612504_30742.png,15.0,10,0
63,203,0.467,dog,dog,1111_eid_hum_0_dog_40_n02112706_2952.png,15.0,10,0
63,204,1.0837,cat,dog,1111_eid_hum_16_dog_40_n02107142_1550.png,15.0,10,16
63,205,0.8671,bird,elephant,1111_eid_hum_16_elephant_40_n02504013_10462.png,15.0,10,16
63,206,1.5337,airplane,knife,1111_eid_hum_8_knife_40_n03041632_17338.png,15.0,10,8
63,207,0.3336,bird,bird,1111_eid_hum_0_bird_40_n01530575_4260.png,15.0,10,0
63,208,2.7667,cat,bottle,1111_eid_hum_8_bottle_40_n04560804_11601.png,15.0,10,8
63,209,0.2669,bird,bird,1111_eid_hum_4_bird_40_n02018795_11949.png,15.0,10,4
63,210,0.6668,clock,clock,1111_eid_hum_16_clock_40_n03196217_8614.png,15.0,10,16
63,211,11.0825,car,bottle,1111_eid_hum_8_bottle_40_n04591713_5754.png,15.0,10,8
63,212,0.917,dog,dog,1111_eid_hum_0_dog_40_n02097130_1834.png,15.0,10,0
63,213,7.6498,clock,oven,1111_eid_hum_16_oven_40_n04111531_23215.png,15.0,10,16
63,214,1.2338,boat,boat,1111_eid_hum_8_boat_40_n04273569_13091.png,15.0,10,8
63,215,0.3503,car,car,1111_eid_hum_8_car_40_n04285008_10287.png,15.0,10,8
63,216,0.3838,elephant,elephant,1111_eid_hum_4_elephant_40_n02504458_1998.png,15.0,10,4
63,217,0.3505,dog,dog,1111_eid_hum_16_dog_40_n02096437_6439.png,15.0,10,16
63,218,2.5332,oven,oven,1111_eid_hum_4_oven_40_n04111531_10011.png,15.0,10,4
63,219,0.5671,bear,bear,1111_eid_hum_0_bear_40_n02132136_5184.png,15.0,10,0
63,220,0.5672,boat,boat,1111_eid_hum_4_boat_40_n04612504_7166.png,15.0,10,4
63,221,0.2341,airplane,airplane,1111_eid_hum_0_airplane_40_n02690373_19152.png,15.0,11,0
63,222,0.2502,bear,bear,1111_eid_hum_0_bear_40_n02132136_6787.png,15.0,11,0
63,223,0.3006,truck,truck,1111_eid_hum_4_truck_40_n04467665_1077.png,15.0,11,4
63,224,0.667,boat,boat,1111_eid_hum_16_boat_40_n02951358_4826.png,15.0,11,16
63,225,0.9005,boat,boat,1111_eid_hum_8_boat_40_n03344393_302.png,15.0,11,8
63,226,3.1503,bicycle,dog,1111_eid_hum_16_dog_40_n02100877_20916.png,15.0,11,16
63,227,0.8836,bird,bird,1111_eid_hum_4_bird_40_n02025239_22501.png,15.0,11,4
63,228,0.3842,clock,clock,1111_eid_hum_4_clock_40_n04548280_1438.png,15.0,11,4
63,229,1.1338,chair,chair,1111_eid_hum_8_chair_40_n02791124_141.png,15.0,11,8
63,230,2.6333,bird,bicycle,1111_eid_hum_16_bicycle_40_n03792782_3047.png,15.0,11,16
63,231,3.8165,knife,knife,1111_eid_hum_4_knife_40_n03041632_26340.png,15.0,11,4
63,232,2.2338,clock,clock,1111_eid_hum_8_clock_40_n02708093_462.png,15.0,11,8
63,233,0.3335,elephant,elephant,1111_eid_hum_8_elephant_40_n02504458_1848.png,15.0,11,8
63,234,0.4167,airplane,airplane,1111_eid_hum_8_airplane_40_n02690373_1837.png,15.0,11,8
63,235,2.8169999999999997,dog,chair,1111_eid_hum_16_chair_40_n04429376_3620.png,15.0,11,16
63,236,1.6672,bird,bird,1111_eid_hum_16_bird_40_n02037110_11551.png,15.0,11,16
63,237,0.6002,airplane,airplane,1111_eid_hum_0_airplane_40_n02690373_4243.png,15.0,11,0
63,238,0.4336,keyboard,keyboard,1111_eid_hum_0_keyboard_40_n03085013_1483.png,15.0,11,0
63,239,0.6667,bear,bear,1111_eid_hum_0_bear_40_n02132136_11149.png,15.0,11,0
63,240,1.2168,bottle,bottle,1111_eid_hum_4_bottle_40_n04560804_13773.png,15.0,11,4
63,241,0.3168,bicycle,bicycle,1111_eid_hum_4_bicycle_40_n03792782_17337.png,15.0,13,4
63,242,0.1836,cat,cat,1111_eid_hum_4_cat_40_n02123597_3037.png,15.0,13,4
63,243,0.2006,car,car,1111_eid_hum_0_car_40_n03100240_24331.png,15.0,13,0
63,244,0.6339,chair,chair,1111_eid_hum_16_chair_40_n03376595_2566.png,15.0,13,16
63,245,3.7334,bird,bird,1111_eid_hum_8_bird_40_n01601694_13334.png,15.0,13,8
63,246,0.5338,bicycle,bicycle,1111_eid_hum_16_bicycle_40_n02835271_15925.png,15.0,13,16
63,247,0.217,cat,cat,1111_eid_hum_8_cat_40_n02123045_8774.png,15.0,13,8
63,248,0.7838,bear,bear,1111_eid_hum_4_bear_40_n02134084_10224.png,15.0,13,4
63,249,2.117,airplane,airplane,1111_eid_hum_8_airplane_40_n02690373_3874.png,15.0,13,8
63,250,4.5999,knife,knife,1111_eid_hum_8_knife_40_n03041632_105081.png,15.0,13,8
63,251,0.3668,dog,dog,1111_eid_hum_8_dog_40_n02105056_9209.png,15.0,13,8
63,252,0.2836,bird,bird,1111_eid_hum_16_bird_40_n01532829_22520.png,15.0,13,16
63,253,4.6503,boat,clock,1111_eid_hum_16_clock_40_n04548280_8585.png,15.0,13,16
63,254,5.1165,oven,oven,1111_eid_hum_0_oven_40_n04111531_2371.png,15.0,13,0
63,255,0.3169,dog,dog,1111_eid_hum_0_dog_40_n02106382_14862.png,15.0,13,0
63,256,6.7494,dog,chair,1111_eid_hum_16_chair_40_n04429376_10128.png,15.0,13,16
63,257,0.4003,bicycle,bicycle,1111_eid_hum_0_bicycle_40_n02835271_1299.png,15.0,13,0
63,258,15.532,knife,knife,1111_eid_hum_0_knife_40_n03041632_11285.png,15.0,13,0
63,259,0.3670000000000001,cat,cat,1111_eid_hum_4_cat_40_n02123394_2903.png,15.0,13,4
63,260,0.5501,elephant,elephant,1111_eid_hum_4_elephant_40_n02504458_5176.png,15.0,13,4
63,261,0.2505,airplane,airplane,1111_eid_hum_0_airplane_40_n02690373_14117.png,15.0,14,0
