subj,trial,rt,object_response,category,imagename,age,block,difficulty
BiTM_resnetv2_152x2,1,,airplane,airplane,1111_snp_dnn_0.0_airplane_10_n02690373_18693.png,,,0.0
BiTM_resnetv2_152x2,2,,airplane,airplane,1111_snp_dnn_0.0_airplane_10_n02690373_19152.png,,,0.0
BiTM_resnetv2_152x2,3,,airplane,airplane,1111_snp_dnn_0.0_airplane_10_n02690373_2435.png,,,0.0
BiTM_resnetv2_152x2,4,,airplane,airplane,1111_snp_dnn_0.0_airplane_10_n02690373_3993.png,,,0.0
BiTM_resnetv2_152x2,5,,airplane,airplane,1111_snp_dnn_0.0_airplane_10_n02690373_8789.png,,,0.0
BiTM_resnetv2_152x2,6,,bear,bear,1111_snp_dnn_0.0_bear_10_n02134084_19407.png,,,0.0
BiTM_resnetv2_152x2,7,,bear,bear,1111_snp_dnn_0.0_bear_10_n02134084_5027.png,,,0.0
BiTM_resnetv2_152x2,8,,bear,bear,1111_snp_dnn_0.0_bear_10_n02134418_4886.png,,,0.0
BiTM_resnetv2_152x2,9,,bear,bear,1111_snp_dnn_0.0_bear_10_n02134418_703.png,,,0.0
BiTM_resnetv2_152x2,10,,bear,bear,1111_snp_dnn_0.0_bear_10_n02134418_832.png,,,0.0
BiTM_resnetv2_152x2,11,,bicycle,bicycle,1111_snp_dnn_0.0_bicycle_10_n02835271_1299.png,,,0.0
BiTM_resnetv2_152x2,12,,bicycle,bicycle,1111_snp_dnn_0.0_bicycle_10_n02835271_276.png,,,0.0
BiTM_resnetv2_152x2,13,,bicycle,bicycle,1111_snp_dnn_0.0_bicycle_10_n02835271_8081.png,,,0.0
BiTM_resnetv2_152x2,14,,bicycle,bicycle,1111_snp_dnn_0.0_bicycle_10_n03792782_14216.png,,,0.0
BiTM_resnetv2_152x2,15,,bicycle,bicycle,1111_snp_dnn_0.0_bicycle_10_n03792782_3047.png,,,0.0
BiTM_resnetv2_152x2,16,,bird,bird,1111_snp_dnn_0.0_bird_10_n01530575_4260.png,,,0.0
BiTM_resnetv2_152x2,17,,bird,bird,1111_snp_dnn_0.0_bird_10_n01530575_6098.png,,,0.0
BiTM_resnetv2_152x2,18,,bird,bird,1111_snp_dnn_0.0_bird_10_n01537544_15048.png,,,0.0
BiTM_resnetv2_152x2,19,,bird,bird,1111_snp_dnn_0.0_bird_10_n02018795_11949.png,,,0.0
BiTM_resnetv2_152x2,20,,bird,bird,1111_snp_dnn_0.0_bird_10_n02037110_11551.png,,,0.0
BiTM_resnetv2_152x2,21,,boat,boat,1111_snp_dnn_0.0_boat_10_n02951358_12866.png,,,0.0
BiTM_resnetv2_152x2,22,,boat,boat,1111_snp_dnn_0.0_boat_10_n02951358_15424.png,,,0.0
BiTM_resnetv2_152x2,23,,boat,boat,1111_snp_dnn_0.0_boat_10_n02951358_32429.png,,,0.0
BiTM_resnetv2_152x2,24,,boat,boat,1111_snp_dnn_0.0_boat_10_n02951358_5718.png,,,0.0
BiTM_resnetv2_152x2,25,,boat,boat,1111_snp_dnn_0.0_boat_10_n03344393_6758.png,,,0.0
BiTM_resnetv2_152x2,26,,bottle,bottle,1111_snp_dnn_0.0_bottle_10_n03937543_2357.png,,,0.0
BiTM_resnetv2_152x2,27,,bottle,bottle,1111_snp_dnn_0.0_bottle_10_n04560804_13773.png,,,0.0
BiTM_resnetv2_152x2,28,,bottle,bottle,1111_snp_dnn_0.0_bottle_10_n04560804_19872.png,,,0.0
BiTM_resnetv2_152x2,29,,bottle,bottle,1111_snp_dnn_0.0_bottle_10_n04591713_2024.png,,,0.0
BiTM_resnetv2_152x2,30,,bottle,bottle,1111_snp_dnn_0.0_bottle_10_n04591713_2718.png,,,0.0
BiTM_resnetv2_152x2,31,,car,car,1111_snp_dnn_0.0_car_10_n02814533_32461.png,,,0.0
BiTM_resnetv2_152x2,32,,car,car,1111_snp_dnn_0.0_car_10_n03100240_24331.png,,,0.0
BiTM_resnetv2_152x2,33,,car,car,1111_snp_dnn_0.0_car_10_n03100240_418.png,,,0.0
BiTM_resnetv2_152x2,34,,car,car,1111_snp_dnn_0.0_car_10_n04285008_2789.png,,,0.0
BiTM_resnetv2_152x2,35,,car,car,1111_snp_dnn_0.0_car_10_n04285008_88.png,,,0.0
BiTM_resnetv2_152x2,36,,cat,cat,1111_snp_dnn_0.0_cat_10_n02123045_964.png,,,0.0
BiTM_resnetv2_152x2,37,,cat,cat,1111_snp_dnn_0.0_cat_10_n02123159_3330.png,,,0.0
BiTM_resnetv2_152x2,38,,cat,cat,1111_snp_dnn_0.0_cat_10_n02123597_3037.png,,,0.0
BiTM_resnetv2_152x2,39,,cat,cat,1111_snp_dnn_0.0_cat_10_n02123597_5017.png,,,0.0
BiTM_resnetv2_152x2,40,,cat,cat,1111_snp_dnn_0.0_cat_10_n02124075_14094.png,,,0.0
BiTM_resnetv2_152x2,41,,chair,chair,1111_snp_dnn_0.0_chair_10_n02791124_9124.png,,,0.0
BiTM_resnetv2_152x2,42,,chair,chair,1111_snp_dnn_0.0_chair_10_n04099969_20900.png,,,0.0
BiTM_resnetv2_152x2,43,,chair,chair,1111_snp_dnn_0.0_chair_10_n04429376_10128.png,,,0.0
BiTM_resnetv2_152x2,44,,chair,chair,1111_snp_dnn_0.0_chair_10_n04429376_42324.png,,,0.0
BiTM_resnetv2_152x2,45,,chair,chair,1111_snp_dnn_0.0_chair_10_n04429376_9212.png,,,0.0
BiTM_resnetv2_152x2,46,,clock,clock,1111_snp_dnn_0.0_clock_10_n02708093_3459.png,,,0.0
BiTM_resnetv2_152x2,47,,clock,clock,1111_snp_dnn_0.0_clock_10_n03196217_585.png,,,0.0
BiTM_resnetv2_152x2,48,,clock,clock,1111_snp_dnn_0.0_clock_10_n03196217_6809.png,,,0.0
BiTM_resnetv2_152x2,49,,truck,clock,1111_snp_dnn_0.0_clock_10_n04548280_711.png,,,0.0
BiTM_resnetv2_152x2,50,,clock,clock,1111_snp_dnn_0.0_clock_10_n04548280_7490.png,,,0.0
BiTM_resnetv2_152x2,51,,dog,dog,1111_snp_dnn_0.0_dog_10_n02096437_6439.png,,,0.0
BiTM_resnetv2_152x2,52,,dog,dog,1111_snp_dnn_0.0_dog_10_n02098105_1796.png,,,0.0
BiTM_resnetv2_152x2,53,,dog,dog,1111_snp_dnn_0.0_dog_10_n02100877_20916.png,,,0.0
BiTM_resnetv2_152x2,54,,dog,dog,1111_snp_dnn_0.0_dog_10_n02105056_9209.png,,,0.0
BiTM_resnetv2_152x2,55,,dog,dog,1111_snp_dnn_0.0_dog_10_n02112706_2952.png,,,0.0
BiTM_resnetv2_152x2,56,,elephant,elephant,1111_snp_dnn_0.0_elephant_10_n02504013_19694.png,,,0.0
BiTM_resnetv2_152x2,57,,elephant,elephant,1111_snp_dnn_0.0_elephant_10_n02504013_868.png,,,0.0
BiTM_resnetv2_152x2,58,,elephant,elephant,1111_snp_dnn_0.0_elephant_10_n02504458_3140.png,,,0.0
BiTM_resnetv2_152x2,59,,elephant,elephant,1111_snp_dnn_0.0_elephant_10_n02504458_4336.png,,,0.0
BiTM_resnetv2_152x2,60,,elephant,elephant,1111_snp_dnn_0.0_elephant_10_n02504458_7013.png,,,0.0
BiTM_resnetv2_152x2,61,,keyboard,keyboard,1111_snp_dnn_0.0_keyboard_10_n03085013_1483.png,,,0.0
BiTM_resnetv2_152x2,62,,keyboard,keyboard,1111_snp_dnn_0.0_keyboard_10_n03085013_19436.png,,,0.0
BiTM_resnetv2_152x2,63,,keyboard,keyboard,1111_snp_dnn_0.0_keyboard_10_n03085013_24455.png,,,0.0
BiTM_resnetv2_152x2,64,,keyboard,keyboard,1111_snp_dnn_0.0_keyboard_10_n03085013_25181.png,,,0.0
BiTM_resnetv2_152x2,65,,keyboard,keyboard,1111_snp_dnn_0.0_keyboard_10_n03085013_4160.png,,,0.0
BiTM_resnetv2_152x2,66,,knife,knife,1111_snp_dnn_0.0_knife_10_n03041632_11797.png,,,0.0
BiTM_resnetv2_152x2,67,,knife,knife,1111_snp_dnn_0.0_knife_10_n03041632_24114.png,,,0.0
BiTM_resnetv2_152x2,68,,knife,knife,1111_snp_dnn_0.0_knife_10_n03041632_3210.png,,,0.0
BiTM_resnetv2_152x2,69,,knife,knife,1111_snp_dnn_0.0_knife_10_n03041632_47743.png,,,0.0
BiTM_resnetv2_152x2,70,,knife,knife,1111_snp_dnn_0.0_knife_10_n03041632_4808.png,,,0.0
BiTM_resnetv2_152x2,71,,oven,oven,1111_snp_dnn_0.0_oven_10_n04111531_10306.png,,,0.0
BiTM_resnetv2_152x2,72,,oven,oven,1111_snp_dnn_0.0_oven_10_n04111531_13247.png,,,0.0
BiTM_resnetv2_152x2,73,,oven,oven,1111_snp_dnn_0.0_oven_10_n04111531_21973.png,,,0.0
BiTM_resnetv2_152x2,74,,oven,oven,1111_snp_dnn_0.0_oven_10_n04111531_23215.png,,,0.0
BiTM_resnetv2_152x2,75,,oven,oven,1111_snp_dnn_0.0_oven_10_n04111531_2930.png,,,0.0
BiTM_resnetv2_152x2,76,,truck,truck,1111_snp_dnn_0.0_truck_10_n03417042_11.png,,,0.0
BiTM_resnetv2_152x2,77,,truck,truck,1111_snp_dnn_0.0_truck_10_n03417042_19905.png,,,0.0
BiTM_resnetv2_152x2,78,,truck,truck,1111_snp_dnn_0.0_truck_10_n03417042_23440.png,,,0.0
BiTM_resnetv2_152x2,79,,truck,truck,1111_snp_dnn_0.0_truck_10_n03417042_28078.png,,,0.0
BiTM_resnetv2_152x2,80,,truck,truck,1111_snp_dnn_0.0_truck_10_n03796401_4495.png,,,0.0
BiTM_resnetv2_152x2,81,,airplane,airplane,1111_snp_dnn_0.1_airplane_10_n02690373_1161.png,,,0.1
BiTM_resnetv2_152x2,82,,airplane,airplane,1111_snp_dnn_0.1_airplane_10_n02690373_1277.png,,,0.1
BiTM_resnetv2_152x2,83,,airplane,airplane,1111_snp_dnn_0.1_airplane_10_n02690373_1837.png,,,0.1
BiTM_resnetv2_152x2,84,,boat,airplane,1111_snp_dnn_0.1_airplane_10_n02690373_3874.png,,,0.1
BiTM_resnetv2_152x2,85,,boat,airplane,1111_snp_dnn_0.1_airplane_10_n02690373_5870.png,,,0.1
BiTM_resnetv2_152x2,86,,bear,bear,1111_snp_dnn_0.1_bear_10_n02132136_11149.png,,,0.1
BiTM_resnetv2_152x2,87,,bear,bear,1111_snp_dnn_0.1_bear_10_n02133161_2137.png,,,0.1
BiTM_resnetv2_152x2,88,,bear,bear,1111_snp_dnn_0.1_bear_10_n02134084_34728.png,,,0.1
BiTM_resnetv2_152x2,89,,bear,bear,1111_snp_dnn_0.1_bear_10_n02134084_4612.png,,,0.1
BiTM_resnetv2_152x2,90,,bear,bear,1111_snp_dnn_0.1_bear_10_n02134084_6343.png,,,0.1
BiTM_resnetv2_152x2,91,,bicycle,bicycle,1111_snp_dnn_0.1_bicycle_10_n02835271_15925.png,,,0.1
BiTM_resnetv2_152x2,92,,bicycle,bicycle,1111_snp_dnn_0.1_bicycle_10_n03792782_23560.png,,,0.1
BiTM_resnetv2_152x2,93,,bicycle,bicycle,1111_snp_dnn_0.1_bicycle_10_n03792782_33855.png,,,0.1
BiTM_resnetv2_152x2,94,,bicycle,bicycle,1111_snp_dnn_0.1_bicycle_10_n03792782_3467.png,,,0.1
BiTM_resnetv2_152x2,95,,bicycle,bicycle,1111_snp_dnn_0.1_bicycle_10_n03792782_52601.png,,,0.1
BiTM_resnetv2_152x2,96,,bear,bird,1111_snp_dnn_0.1_bird_10_n01601694_13334.png,,,0.1
BiTM_resnetv2_152x2,97,,bird,bird,1111_snp_dnn_0.1_bird_10_n01843383_8077.png,,,0.1
BiTM_resnetv2_152x2,98,,bird,bird,1111_snp_dnn_0.1_bird_10_n02007558_45529.png,,,0.1
BiTM_resnetv2_152x2,99,,bird,bird,1111_snp_dnn_0.1_bird_10_n02009229_5962.png,,,0.1
BiTM_resnetv2_152x2,100,,bird,bird,1111_snp_dnn_0.1_bird_10_n02027492_2004.png,,,0.1
BiTM_resnetv2_152x2,101,,boat,boat,1111_snp_dnn_0.1_boat_10_n02951358_14612.png,,,0.1
BiTM_resnetv2_152x2,102,,boat,boat,1111_snp_dnn_0.1_boat_10_n02951358_2853.png,,,0.1
BiTM_resnetv2_152x2,103,,boat,boat,1111_snp_dnn_0.1_boat_10_n03344393_302.png,,,0.1
BiTM_resnetv2_152x2,104,,boat,boat,1111_snp_dnn_0.1_boat_10_n04273569_1141.png,,,0.1
BiTM_resnetv2_152x2,105,,bird,boat,1111_snp_dnn_0.1_boat_10_n04273569_13091.png,,,0.1
BiTM_resnetv2_152x2,106,,bottle,bottle,1111_snp_dnn_0.1_bottle_10_n03983396_11337.png,,,0.1
BiTM_resnetv2_152x2,107,,bottle,bottle,1111_snp_dnn_0.1_bottle_10_n03983396_4843.png,,,0.1
BiTM_resnetv2_152x2,108,,bottle,bottle,1111_snp_dnn_0.1_bottle_10_n04560804_11601.png,,,0.1
BiTM_resnetv2_152x2,109,,bottle,bottle,1111_snp_dnn_0.1_bottle_10_n04579145_1302.png,,,0.1
BiTM_resnetv2_152x2,110,,bottle,bottle,1111_snp_dnn_0.1_bottle_10_n04591713_6238.png,,,0.1
BiTM_resnetv2_152x2,111,,car,car,1111_snp_dnn_0.1_car_10_n02814533_83068.png,,,0.1
BiTM_resnetv2_152x2,112,,car,car,1111_snp_dnn_0.1_car_10_n02814533_89061.png,,,0.1
BiTM_resnetv2_152x2,113,,car,car,1111_snp_dnn_0.1_car_10_n04285008_10287.png,,,0.1
BiTM_resnetv2_152x2,114,,car,car,1111_snp_dnn_0.1_car_10_n04285008_3280.png,,,0.1
BiTM_resnetv2_152x2,115,,car,car,1111_snp_dnn_0.1_car_10_n04285008_7096.png,,,0.1
BiTM_resnetv2_152x2,116,,cat,cat,1111_snp_dnn_0.1_cat_10_n02123159_2684.png,,,0.1
BiTM_resnetv2_152x2,117,,cat,cat,1111_snp_dnn_0.1_cat_10_n02124075_3533.png,,,0.1
BiTM_resnetv2_152x2,118,,cat,cat,1111_snp_dnn_0.1_cat_10_n02124075_862.png,,,0.1
BiTM_resnetv2_152x2,119,,cat,cat,1111_snp_dnn_0.1_cat_10_n02124075_8754.png,,,0.1
BiTM_resnetv2_152x2,120,,cat,cat,1111_snp_dnn_0.1_cat_10_n02124075_9716.png,,,0.1
BiTM_resnetv2_152x2,121,,chair,chair,1111_snp_dnn_0.1_chair_10_n02791124_141.png,,,0.1
BiTM_resnetv2_152x2,122,,chair,chair,1111_snp_dnn_0.1_chair_10_n02791124_2470.png,,,0.1
BiTM_resnetv2_152x2,123,,chair,chair,1111_snp_dnn_0.1_chair_10_n03376595_820.png,,,0.1
BiTM_resnetv2_152x2,124,,chair,chair,1111_snp_dnn_0.1_chair_10_n04099969_13056.png,,,0.1
BiTM_resnetv2_152x2,125,,chair,chair,1111_snp_dnn_0.1_chair_10_n04099969_2398.png,,,0.1
BiTM_resnetv2_152x2,126,,clock,clock,1111_snp_dnn_0.1_clock_10_n02708093_1431.png,,,0.1
BiTM_resnetv2_152x2,127,,clock,clock,1111_snp_dnn_0.1_clock_10_n02708093_2843.png,,,0.1
BiTM_resnetv2_152x2,128,,clock,clock,1111_snp_dnn_0.1_clock_10_n03196217_3943.png,,,0.1
BiTM_resnetv2_152x2,129,,clock,clock,1111_snp_dnn_0.1_clock_10_n03196217_5478.png,,,0.1
BiTM_resnetv2_152x2,130,,clock,clock,1111_snp_dnn_0.1_clock_10_n03196217_8614.png,,,0.1
BiTM_resnetv2_152x2,131,,dog,dog,1111_snp_dnn_0.1_dog_10_n02101556_7442.png,,,0.1
BiTM_resnetv2_152x2,132,,dog,dog,1111_snp_dnn_0.1_dog_10_n02102318_11816.png,,,0.1
BiTM_resnetv2_152x2,133,,dog,dog,1111_snp_dnn_0.1_dog_10_n02106382_14862.png,,,0.1
BiTM_resnetv2_152x2,134,,dog,dog,1111_snp_dnn_0.1_dog_10_n02108000_324.png,,,0.1
BiTM_resnetv2_152x2,135,,dog,dog,1111_snp_dnn_0.1_dog_10_n02113624_1203.png,,,0.1
BiTM_resnetv2_152x2,136,,elephant,elephant,1111_snp_dnn_0.1_elephant_10_n02504013_1916.png,,,0.1
BiTM_resnetv2_152x2,137,,keyboard,elephant,1111_snp_dnn_0.1_elephant_10_n02504013_3141.png,,,0.1
BiTM_resnetv2_152x2,138,,elephant,elephant,1111_snp_dnn_0.1_elephant_10_n02504458_3953.png,,,0.1
BiTM_resnetv2_152x2,139,,elephant,elephant,1111_snp_dnn_0.1_elephant_10_n02504458_4954.png,,,0.1
BiTM_resnetv2_152x2,140,,elephant,elephant,1111_snp_dnn_0.1_elephant_10_n02504458_7408.png,,,0.1
BiTM_resnetv2_152x2,141,,keyboard,keyboard,1111_snp_dnn_0.1_keyboard_10_n03085013_24618.png,,,0.1
BiTM_resnetv2_152x2,142,,chair,keyboard,1111_snp_dnn_0.1_keyboard_10_n04505470_1430.png,,,0.1
BiTM_resnetv2_152x2,143,,keyboard,keyboard,1111_snp_dnn_0.1_keyboard_10_n04505470_1833.png,,,0.1
BiTM_resnetv2_152x2,144,,keyboard,keyboard,1111_snp_dnn_0.1_keyboard_10_n04505470_2115.png,,,0.1
BiTM_resnetv2_152x2,145,,keyboard,keyboard,1111_snp_dnn_0.1_keyboard_10_n04505470_933.png,,,0.1
BiTM_resnetv2_152x2,146,,knife,knife,1111_snp_dnn_0.1_knife_10_n03041632_105081.png,,,0.1
BiTM_resnetv2_152x2,147,,airplane,knife,1111_snp_dnn_0.1_knife_10_n03041632_15444.png,,,0.1
BiTM_resnetv2_152x2,148,,knife,knife,1111_snp_dnn_0.1_knife_10_n03041632_17338.png,,,0.1
BiTM_resnetv2_152x2,149,,knife,knife,1111_snp_dnn_0.1_knife_10_n03041632_24277.png,,,0.1
BiTM_resnetv2_152x2,150,,knife,knife,1111_snp_dnn_0.1_knife_10_n03041632_25022.png,,,0.1
BiTM_resnetv2_152x2,151,,oven,oven,1111_snp_dnn_0.1_oven_10_n04111531_1229.png,,,0.1
BiTM_resnetv2_152x2,152,,oven,oven,1111_snp_dnn_0.1_oven_10_n04111531_18592.png,,,0.1
BiTM_resnetv2_152x2,153,,oven,oven,1111_snp_dnn_0.1_oven_10_n04111531_4.png,,,0.1
BiTM_resnetv2_152x2,154,,oven,oven,1111_snp_dnn_0.1_oven_10_n04111531_9490.png,,,0.1
BiTM_resnetv2_152x2,155,,keyboard,oven,1111_snp_dnn_0.1_oven_10_n04111531_9712.png,,,0.1
BiTM_resnetv2_152x2,156,,truck,truck,1111_snp_dnn_0.1_truck_10_n03417042_10300.png,,,0.1
BiTM_resnetv2_152x2,157,,truck,truck,1111_snp_dnn_0.1_truck_10_n03417042_12133.png,,,0.1
BiTM_resnetv2_152x2,158,,truck,truck,1111_snp_dnn_0.1_truck_10_n03417042_12486.png,,,0.1
BiTM_resnetv2_152x2,159,,truck,truck,1111_snp_dnn_0.1_truck_10_n03417042_1656.png,,,0.1
BiTM_resnetv2_152x2,160,,truck,truck,1111_snp_dnn_0.1_truck_10_n03796401_14381.png,,,0.1
BiTM_resnetv2_152x2,161,,airplane,airplane,1111_snp_dnn_0.2_airplane_10_n02690373_14117.png,,,0.2
BiTM_resnetv2_152x2,162,,airplane,airplane,1111_snp_dnn_0.2_airplane_10_n02690373_3912.png,,,0.2
BiTM_resnetv2_152x2,163,,airplane,airplane,1111_snp_dnn_0.2_airplane_10_n02690373_4243.png,,,0.2
BiTM_resnetv2_152x2,164,,airplane,airplane,1111_snp_dnn_0.2_airplane_10_n02690373_6231.png,,,0.2
BiTM_resnetv2_152x2,165,,airplane,airplane,1111_snp_dnn_0.2_airplane_10_n02690373_6853.png,,,0.2
BiTM_resnetv2_152x2,166,,bear,bear,1111_snp_dnn_0.2_bear_10_n02132136_1934.png,,,0.2
BiTM_resnetv2_152x2,167,,bear,bear,1111_snp_dnn_0.2_bear_10_n02132136_5184.png,,,0.2
BiTM_resnetv2_152x2,168,,elephant,bear,1111_snp_dnn_0.2_bear_10_n02132136_6787.png,,,0.2
BiTM_resnetv2_152x2,169,,bear,bear,1111_snp_dnn_0.2_bear_10_n02133161_1498.png,,,0.2
BiTM_resnetv2_152x2,170,,bear,bear,1111_snp_dnn_0.2_bear_10_n02134418_4041.png,,,0.2
BiTM_resnetv2_152x2,171,,bicycle,bicycle,1111_snp_dnn_0.2_bicycle_10_n02835271_13131.png,,,0.2
BiTM_resnetv2_152x2,172,,bicycle,bicycle,1111_snp_dnn_0.2_bicycle_10_n02835271_7873.png,,,0.2
BiTM_resnetv2_152x2,173,,bicycle,bicycle,1111_snp_dnn_0.2_bicycle_10_n03792782_1030.png,,,0.2
BiTM_resnetv2_152x2,174,,bicycle,bicycle,1111_snp_dnn_0.2_bicycle_10_n03792782_3631.png,,,0.2
BiTM_resnetv2_152x2,175,,bicycle,bicycle,1111_snp_dnn_0.2_bicycle_10_n03792782_47774.png,,,0.2
BiTM_resnetv2_152x2,176,,bird,bird,1111_snp_dnn_0.2_bird_10_n01532829_22520.png,,,0.2
BiTM_resnetv2_152x2,177,,bicycle,bird,1111_snp_dnn_0.2_bird_10_n01818515_7890.png,,,0.2
BiTM_resnetv2_152x2,178,,bear,bird,1111_snp_dnn_0.2_bird_10_n01819313_3893.png,,,0.2
BiTM_resnetv2_152x2,179,,bicycle,bird,1111_snp_dnn_0.2_bird_10_n02007558_10725.png,,,0.2
BiTM_resnetv2_152x2,180,,bird,bird,1111_snp_dnn_0.2_bird_10_n02037110_8732.png,,,0.2
BiTM_resnetv2_152x2,181,,boat,boat,1111_snp_dnn_0.2_boat_10_n02951358_19768.png,,,0.2
BiTM_resnetv2_152x2,182,,boat,boat,1111_snp_dnn_0.2_boat_10_n03344393_7433.png,,,0.2
BiTM_resnetv2_152x2,183,,boat,boat,1111_snp_dnn_0.2_boat_10_n04612504_30742.png,,,0.2
BiTM_resnetv2_152x2,184,,boat,boat,1111_snp_dnn_0.2_boat_10_n04612504_7166.png,,,0.2
BiTM_resnetv2_152x2,185,,boat,boat,1111_snp_dnn_0.2_boat_10_n04612504_8942.png,,,0.2
BiTM_resnetv2_152x2,186,,knife,bottle,1111_snp_dnn_0.2_bottle_10_n02823428_825.png,,,0.2
BiTM_resnetv2_152x2,187,,oven,bottle,1111_snp_dnn_0.2_bottle_10_n03937543_3759.png,,,0.2
BiTM_resnetv2_152x2,188,,chair,bottle,1111_snp_dnn_0.2_bottle_10_n04560804_12278.png,,,0.2
BiTM_resnetv2_152x2,189,,bottle,bottle,1111_snp_dnn_0.2_bottle_10_n04591713_595.png,,,0.2
BiTM_resnetv2_152x2,190,,boat,bottle,1111_snp_dnn_0.2_bottle_10_n04591713_7221.png,,,0.2
BiTM_resnetv2_152x2,191,,car,car,1111_snp_dnn_0.2_car_10_n02814533_1165.png,,,0.2
BiTM_resnetv2_152x2,192,,car,car,1111_snp_dnn_0.2_car_10_n02814533_75974.png,,,0.2
BiTM_resnetv2_152x2,193,,car,car,1111_snp_dnn_0.2_car_10_n02814533_82925.png,,,0.2
BiTM_resnetv2_152x2,194,,car,car,1111_snp_dnn_0.2_car_10_n03100240_5489.png,,,0.2
BiTM_resnetv2_152x2,195,,car,car,1111_snp_dnn_0.2_car_10_n04285008_9470.png,,,0.2
BiTM_resnetv2_152x2,196,,cat,cat,1111_snp_dnn_0.2_cat_10_n02123045_2025.png,,,0.2
BiTM_resnetv2_152x2,197,,cat,cat,1111_snp_dnn_0.2_cat_10_n02123045_9341.png,,,0.2
BiTM_resnetv2_152x2,198,,cat,cat,1111_snp_dnn_0.2_cat_10_n02123159_3226.png,,,0.2
BiTM_resnetv2_152x2,199,,boat,cat,1111_snp_dnn_0.2_cat_10_n02123159_6505.png,,,0.2
BiTM_resnetv2_152x2,200,,cat,cat,1111_snp_dnn_0.2_cat_10_n02124075_20957.png,,,0.2
BiTM_resnetv2_152x2,201,,chair,chair,1111_snp_dnn_0.2_chair_10_n03376595_2566.png,,,0.2
BiTM_resnetv2_152x2,202,,chair,chair,1111_snp_dnn_0.2_chair_10_n03376595_4309.png,,,0.2
BiTM_resnetv2_152x2,203,,chair,chair,1111_snp_dnn_0.2_chair_10_n03376595_4469.png,,,0.2
BiTM_resnetv2_152x2,204,,chair,chair,1111_snp_dnn_0.2_chair_10_n04099969_18182.png,,,0.2
BiTM_resnetv2_152x2,205,,chair,chair,1111_snp_dnn_0.2_chair_10_n04429376_18127.png,,,0.2
BiTM_resnetv2_152x2,206,,keyboard,clock,1111_snp_dnn_0.2_clock_10_n03196217_4004.png,,,0.2
BiTM_resnetv2_152x2,207,,keyboard,clock,1111_snp_dnn_0.2_clock_10_n03196217_4417.png,,,0.2
BiTM_resnetv2_152x2,208,,clock,clock,1111_snp_dnn_0.2_clock_10_n04548280_1438.png,,,0.2
BiTM_resnetv2_152x2,209,,clock,clock,1111_snp_dnn_0.2_clock_10_n04548280_2518.png,,,0.2
BiTM_resnetv2_152x2,210,,clock,clock,1111_snp_dnn_0.2_clock_10_n04548280_8585.png,,,0.2
BiTM_resnetv2_152x2,211,,bear,dog,1111_snp_dnn_0.2_dog_10_n02090721_1456.png,,,0.2
BiTM_resnetv2_152x2,212,,dog,dog,1111_snp_dnn_0.2_dog_10_n02097130_1834.png,,,0.2
BiTM_resnetv2_152x2,213,,dog,dog,1111_snp_dnn_0.2_dog_10_n02099712_5781.png,,,0.2
BiTM_resnetv2_152x2,214,,dog,dog,1111_snp_dnn_0.2_dog_10_n02101388_2075.png,,,0.2
BiTM_resnetv2_152x2,215,,cat,dog,1111_snp_dnn_0.2_dog_10_n02107142_1550.png,,,0.2
BiTM_resnetv2_152x2,216,,elephant,elephant,1111_snp_dnn_0.2_elephant_10_n02504013_6660.png,,,0.2
BiTM_resnetv2_152x2,217,,elephant,elephant,1111_snp_dnn_0.2_elephant_10_n02504458_1735.png,,,0.2
BiTM_resnetv2_152x2,218,,elephant,elephant,1111_snp_dnn_0.2_elephant_10_n02504458_1844.png,,,0.2
BiTM_resnetv2_152x2,219,,elephant,elephant,1111_snp_dnn_0.2_elephant_10_n02504458_1998.png,,,0.2
BiTM_resnetv2_152x2,220,,elephant,elephant,1111_snp_dnn_0.2_elephant_10_n02504458_5561.png,,,0.2
BiTM_resnetv2_152x2,221,,keyboard,keyboard,1111_snp_dnn_0.2_keyboard_10_n04505470_1874.png,,,0.2
BiTM_resnetv2_152x2,222,,keyboard,keyboard,1111_snp_dnn_0.2_keyboard_10_n04505470_2570.png,,,0.2
BiTM_resnetv2_152x2,223,,keyboard,keyboard,1111_snp_dnn_0.2_keyboard_10_n04505470_3947.png,,,0.2
BiTM_resnetv2_152x2,224,,keyboard,keyboard,1111_snp_dnn_0.2_keyboard_10_n04505470_4906.png,,,0.2
BiTM_resnetv2_152x2,225,,keyboard,keyboard,1111_snp_dnn_0.2_keyboard_10_n04505470_6272.png,,,0.2
BiTM_resnetv2_152x2,226,,keyboard,knife,1111_snp_dnn_0.2_knife_10_n03041632_11285.png,,,0.2
BiTM_resnetv2_152x2,227,,elephant,knife,1111_snp_dnn_0.2_knife_10_n03041632_32785.png,,,0.2
BiTM_resnetv2_152x2,228,,keyboard,knife,1111_snp_dnn_0.2_knife_10_n03041632_47410.png,,,0.2
BiTM_resnetv2_152x2,229,,knife,knife,1111_snp_dnn_0.2_knife_10_n03041632_48071.png,,,0.2
BiTM_resnetv2_152x2,230,,knife,knife,1111_snp_dnn_0.2_knife_10_n03041632_83826.png,,,0.2
BiTM_resnetv2_152x2,231,,oven,oven,1111_snp_dnn_0.2_oven_10_n04111531_14611.png,,,0.2
BiTM_resnetv2_152x2,232,,bear,oven,1111_snp_dnn_0.2_oven_10_n04111531_15649.png,,,0.2
BiTM_resnetv2_152x2,233,,oven,oven,1111_snp_dnn_0.2_oven_10_n04111531_2371.png,,,0.2
BiTM_resnetv2_152x2,234,,oven,oven,1111_snp_dnn_0.2_oven_10_n04111531_326.png,,,0.2
BiTM_resnetv2_152x2,235,,oven,oven,1111_snp_dnn_0.2_oven_10_n04111531_9844.png,,,0.2
BiTM_resnetv2_152x2,236,,truck,truck,1111_snp_dnn_0.2_truck_10_n03796401_15756.png,,,0.2
BiTM_resnetv2_152x2,237,,truck,truck,1111_snp_dnn_0.2_truck_10_n03796401_17504.png,,,0.2
BiTM_resnetv2_152x2,238,,truck,truck,1111_snp_dnn_0.2_truck_10_n03796401_19114.png,,,0.2
BiTM_resnetv2_152x2,239,,truck,truck,1111_snp_dnn_0.2_truck_10_n03796401_4309.png,,,0.2
BiTM_resnetv2_152x2,240,,truck,truck,1111_snp_dnn_0.2_truck_10_n04467665_11776.png,,,0.2
BiTM_resnetv2_152x2,241,,airplane,airplane,1111_snp_dnn_0.35_airplane_10_n02690373_1071.png,,,0.35
BiTM_resnetv2_152x2,242,,boat,airplane,1111_snp_dnn_0.35_airplane_10_n02690373_2024.png,,,0.35
BiTM_resnetv2_152x2,243,,elephant,airplane,1111_snp_dnn_0.35_airplane_10_n02690373_2070.png,,,0.35
BiTM_resnetv2_152x2,244,,airplane,airplane,1111_snp_dnn_0.35_airplane_10_n02690373_4728.png,,,0.35
BiTM_resnetv2_152x2,245,,airplane,airplane,1111_snp_dnn_0.35_airplane_10_n02690373_6999.png,,,0.35
BiTM_resnetv2_152x2,246,,bear,bear,1111_snp_dnn_0.35_bear_10_n02132136_3169.png,,,0.35
BiTM_resnetv2_152x2,247,,elephant,bear,1111_snp_dnn_0.35_bear_10_n02133161_10314.png,,,0.35
BiTM_resnetv2_152x2,248,,bear,bear,1111_snp_dnn_0.35_bear_10_n02134084_10224.png,,,0.35
BiTM_resnetv2_152x2,249,,bear,bear,1111_snp_dnn_0.35_bear_10_n02134084_2004.png,,,0.35
BiTM_resnetv2_152x2,250,,bear,bear,1111_snp_dnn_0.35_bear_10_n02134418_4895.png,,,0.35
BiTM_resnetv2_152x2,251,,bicycle,bicycle,1111_snp_dnn_0.35_bicycle_10_n02835271_15038.png,,,0.35
BiTM_resnetv2_152x2,252,,bicycle,bicycle,1111_snp_dnn_0.35_bicycle_10_n02835271_8273.png,,,0.35
BiTM_resnetv2_152x2,253,,keyboard,bicycle,1111_snp_dnn_0.35_bicycle_10_n03792782_11597.png,,,0.35
BiTM_resnetv2_152x2,254,,bicycle,bicycle,1111_snp_dnn_0.35_bicycle_10_n03792782_17337.png,,,0.35
BiTM_resnetv2_152x2,255,,bicycle,bicycle,1111_snp_dnn_0.35_bicycle_10_n03792782_692.png,,,0.35
BiTM_resnetv2_152x2,256,,bird,bird,1111_snp_dnn_0.35_bird_10_n01531178_8282.png,,,0.35
BiTM_resnetv2_152x2,257,,bear,bird,1111_snp_dnn_0.35_bird_10_n01537544_2772.png,,,0.35
BiTM_resnetv2_152x2,258,,elephant,bird,1111_snp_dnn_0.35_bird_10_n01860187_6891.png,,,0.35
BiTM_resnetv2_152x2,259,,bear,bird,1111_snp_dnn_0.35_bird_10_n02025239_22501.png,,,0.35
BiTM_resnetv2_152x2,260,,cat,bird,1111_snp_dnn_0.35_bird_10_n02033041_6633.png,,,0.35
BiTM_resnetv2_152x2,261,,boat,boat,1111_snp_dnn_0.35_boat_10_n02951358_31835.png,,,0.35
BiTM_resnetv2_152x2,262,,boat,boat,1111_snp_dnn_0.35_boat_10_n02951358_34051.png,,,0.35
BiTM_resnetv2_152x2,263,,elephant,boat,1111_snp_dnn_0.35_boat_10_n02951358_34441.png,,,0.35
BiTM_resnetv2_152x2,264,,boat,boat,1111_snp_dnn_0.35_boat_10_n02951358_4826.png,,,0.35
BiTM_resnetv2_152x2,265,,bicycle,boat,1111_snp_dnn_0.35_boat_10_n02951358_8194.png,,,0.35
BiTM_resnetv2_152x2,266,,keyboard,bottle,1111_snp_dnn_0.35_bottle_10_n02823428_7033.png,,,0.35
BiTM_resnetv2_152x2,267,,bottle,bottle,1111_snp_dnn_0.35_bottle_10_n04560804_15228.png,,,0.35
BiTM_resnetv2_152x2,268,,keyboard,bottle,1111_snp_dnn_0.35_bottle_10_n04560804_32398.png,,,0.35
BiTM_resnetv2_152x2,269,,keyboard,bottle,1111_snp_dnn_0.35_bottle_10_n04560804_9813.png,,,0.35
BiTM_resnetv2_152x2,270,,bottle,bottle,1111_snp_dnn_0.35_bottle_10_n04591713_5754.png,,,0.35
BiTM_resnetv2_152x2,271,,car,car,1111_snp_dnn_0.35_car_10_n02814533_18458.png,,,0.35
BiTM_resnetv2_152x2,272,,car,car,1111_snp_dnn_0.35_car_10_n02814533_23512.png,,,0.35
BiTM_resnetv2_152x2,273,,car,car,1111_snp_dnn_0.35_car_10_n02814533_27150.png,,,0.35
BiTM_resnetv2_152x2,274,,car,car,1111_snp_dnn_0.35_car_10_n03100240_6805.png,,,0.35
BiTM_resnetv2_152x2,275,,car,car,1111_snp_dnn_0.35_car_10_n03100240_6954.png,,,0.35
BiTM_resnetv2_152x2,276,,bear,cat,1111_snp_dnn_0.35_cat_10_n02123045_8774.png,,,0.35
BiTM_resnetv2_152x2,277,,cat,cat,1111_snp_dnn_0.35_cat_10_n02123394_2364.png,,,0.35
BiTM_resnetv2_152x2,278,,cat,cat,1111_snp_dnn_0.35_cat_10_n02123394_2690.png,,,0.35
BiTM_resnetv2_152x2,279,,cat,cat,1111_snp_dnn_0.35_cat_10_n02123394_2903.png,,,0.35
BiTM_resnetv2_152x2,280,,bear,cat,1111_snp_dnn_0.35_cat_10_n02124075_8351.png,,,0.35
BiTM_resnetv2_152x2,281,,keyboard,chair,1111_snp_dnn_0.35_chair_10_n03376595_6837.png,,,0.35
BiTM_resnetv2_152x2,282,,chair,chair,1111_snp_dnn_0.35_chair_10_n04099969_2267.png,,,0.35
BiTM_resnetv2_152x2,283,,chair,chair,1111_snp_dnn_0.35_chair_10_n04429376_19101.png,,,0.35
BiTM_resnetv2_152x2,284,,chair,chair,1111_snp_dnn_0.35_chair_10_n04429376_3620.png,,,0.35
BiTM_resnetv2_152x2,285,,chair,chair,1111_snp_dnn_0.35_chair_10_n04429376_8395.png,,,0.35
BiTM_resnetv2_152x2,286,,clock,clock,1111_snp_dnn_0.35_clock_10_n02708093_462.png,,,0.35
BiTM_resnetv2_152x2,287,,knife,clock,1111_snp_dnn_0.35_clock_10_n03196217_5252.png,,,0.35
BiTM_resnetv2_152x2,288,,clock,clock,1111_snp_dnn_0.35_clock_10_n03196217_8943.png,,,0.35
BiTM_resnetv2_152x2,289,,clock,clock,1111_snp_dnn_0.35_clock_10_n04548280_11068.png,,,0.35
BiTM_resnetv2_152x2,290,,clock,clock,1111_snp_dnn_0.35_clock_10_n04548280_3997.png,,,0.35
BiTM_resnetv2_152x2,291,,bear,dog,1111_snp_dnn_0.35_dog_10_n02088632_2814.png,,,0.35
BiTM_resnetv2_152x2,292,,cat,dog,1111_snp_dnn_0.35_dog_10_n02105056_328.png,,,0.35
BiTM_resnetv2_152x2,293,,bear,dog,1111_snp_dnn_0.35_dog_10_n02110806_16707.png,,,0.35
BiTM_resnetv2_152x2,294,,dog,dog,1111_snp_dnn_0.35_dog_10_n02110806_2586.png,,,0.35
BiTM_resnetv2_152x2,295,,bear,dog,1111_snp_dnn_0.35_dog_10_n02112018_370.png,,,0.35
BiTM_resnetv2_152x2,296,,elephant,elephant,1111_snp_dnn_0.35_elephant_10_n02504013_10462.png,,,0.35
BiTM_resnetv2_152x2,297,,bear,elephant,1111_snp_dnn_0.35_elephant_10_n02504013_8385.png,,,0.35
BiTM_resnetv2_152x2,298,,elephant,elephant,1111_snp_dnn_0.35_elephant_10_n02504458_1848.png,,,0.35
BiTM_resnetv2_152x2,299,,bear,elephant,1111_snp_dnn_0.35_elephant_10_n02504458_4.png,,,0.35
BiTM_resnetv2_152x2,300,,elephant,elephant,1111_snp_dnn_0.35_elephant_10_n02504458_5176.png,,,0.35
BiTM_resnetv2_152x2,301,,keyboard,keyboard,1111_snp_dnn_0.35_keyboard_10_n03085013_17762.png,,,0.35
BiTM_resnetv2_152x2,302,,keyboard,keyboard,1111_snp_dnn_0.35_keyboard_10_n03085013_2122.png,,,0.35
BiTM_resnetv2_152x2,303,,chair,keyboard,1111_snp_dnn_0.35_keyboard_10_n03085013_24577.png,,,0.35
BiTM_resnetv2_152x2,304,,keyboard,keyboard,1111_snp_dnn_0.35_keyboard_10_n03085013_6038.png,,,0.35
BiTM_resnetv2_152x2,305,,keyboard,keyboard,1111_snp_dnn_0.35_keyboard_10_n03085013_6978.png,,,0.35
BiTM_resnetv2_152x2,306,,chair,knife,1111_snp_dnn_0.35_knife_10_n03041632_11475.png,,,0.35
BiTM_resnetv2_152x2,307,,elephant,knife,1111_snp_dnn_0.35_knife_10_n03041632_14224.png,,,0.35
BiTM_resnetv2_152x2,308,,bottle,knife,1111_snp_dnn_0.35_knife_10_n03041632_21723.png,,,0.35
BiTM_resnetv2_152x2,309,,knife,knife,1111_snp_dnn_0.35_knife_10_n03041632_26340.png,,,0.35
BiTM_resnetv2_152x2,310,,keyboard,knife,1111_snp_dnn_0.35_knife_10_n03041632_31909.png,,,0.35
BiTM_resnetv2_152x2,311,,clock,oven,1111_snp_dnn_0.35_oven_10_n04111531_10011.png,,,0.35
BiTM_resnetv2_152x2,312,,elephant,oven,1111_snp_dnn_0.35_oven_10_n04111531_1054.png,,,0.35
BiTM_resnetv2_152x2,313,,chair,oven,1111_snp_dnn_0.35_oven_10_n04111531_11530.png,,,0.35
BiTM_resnetv2_152x2,314,,oven,oven,1111_snp_dnn_0.35_oven_10_n04111531_18645.png,,,0.35
BiTM_resnetv2_152x2,315,,chair,oven,1111_snp_dnn_0.35_oven_10_n04111531_7034.png,,,0.35
BiTM_resnetv2_152x2,316,,truck,truck,1111_snp_dnn_0.35_truck_10_n03417042_10043.png,,,0.35
BiTM_resnetv2_152x2,317,,truck,truck,1111_snp_dnn_0.35_truck_10_n03417042_14000.png,,,0.35
BiTM_resnetv2_152x2,318,,truck,truck,1111_snp_dnn_0.35_truck_10_n03417042_16389.png,,,0.35
BiTM_resnetv2_152x2,319,,truck,truck,1111_snp_dnn_0.35_truck_10_n04467665_1077.png,,,0.35
BiTM_resnetv2_152x2,320,,car,truck,1111_snp_dnn_0.35_truck_10_n04467665_50932.png,,,0.35
