subj,trial,rt,object_response,category,imagename,age,block,difficulty
swag_regnety_128gf_in1k,1,,airplane,airplane,1111_snp_dnn_0.0_airplane_10_n02690373_18693.png,,,0.0
swag_regnety_128gf_in1k,2,,airplane,airplane,1111_snp_dnn_0.0_airplane_10_n02690373_19152.png,,,0.0
swag_regnety_128gf_in1k,3,,airplane,airplane,1111_snp_dnn_0.0_airplane_10_n02690373_2435.png,,,0.0
swag_regnety_128gf_in1k,4,,airplane,airplane,1111_snp_dnn_0.0_airplane_10_n02690373_3993.png,,,0.0
swag_regnety_128gf_in1k,5,,airplane,airplane,1111_snp_dnn_0.0_airplane_10_n02690373_8789.png,,,0.0
swag_regnety_128gf_in1k,6,,bear,bear,1111_snp_dnn_0.0_bear_10_n02134084_19407.png,,,0.0
swag_regnety_128gf_in1k,7,,bear,bear,1111_snp_dnn_0.0_bear_10_n02134084_5027.png,,,0.0
swag_regnety_128gf_in1k,8,,bear,bear,1111_snp_dnn_0.0_bear_10_n02134418_4886.png,,,0.0
swag_regnety_128gf_in1k,9,,bear,bear,1111_snp_dnn_0.0_bear_10_n02134418_703.png,,,0.0
swag_regnety_128gf_in1k,10,,bear,bear,1111_snp_dnn_0.0_bear_10_n02134418_832.png,,,0.0
swag_regnety_128gf_in1k,11,,bicycle,bicycle,1111_snp_dnn_0.0_bicycle_10_n02835271_1299.png,,,0.0
swag_regnety_128gf_in1k,12,,bicycle,bicycle,1111_snp_dnn_0.0_bicycle_10_n02835271_276.png,,,0.0
swag_regnety_128gf_in1k,13,,bicycle,bicycle,1111_snp_dnn_0.0_bicycle_10_n02835271_8081.png,,,0.0
swag_regnety_128gf_in1k,14,,bicycle,bicycle,1111_snp_dnn_0.0_bicycle_10_n03792782_14216.png,,,0.0
swag_regnety_128gf_in1k,15,,bicycle,bicycle,1111_snp_dnn_0.0_bicycle_10_n03792782_3047.png,,,0.0
swag_regnety_128gf_in1k,16,,bird,bird,1111_snp_dnn_0.0_bird_10_n01530575_4260.png,,,0.0
swag_regnety_128gf_in1k,17,,bird,bird,1111_snp_dnn_0.0_bird_10_n01530575_6098.png,,,0.0
swag_regnety_128gf_in1k,18,,bird,bird,1111_snp_dnn_0.0_bird_10_n01537544_15048.png,,,0.0
swag_regnety_128gf_in1k,19,,bird,bird,1111_snp_dnn_0.0_bird_10_n02018795_11949.png,,,0.0
swag_regnety_128gf_in1k,20,,bird,bird,1111_snp_dnn_0.0_bird_10_n02037110_11551.png,,,0.0
swag_regnety_128gf_in1k,21,,boat,boat,1111_snp_dnn_0.0_boat_10_n02951358_12866.png,,,0.0
swag_regnety_128gf_in1k,22,,boat,boat,1111_snp_dnn_0.0_boat_10_n02951358_15424.png,,,0.0
swag_regnety_128gf_in1k,23,,boat,boat,1111_snp_dnn_0.0_boat_10_n02951358_32429.png,,,0.0
swag_regnety_128gf_in1k,24,,boat,boat,1111_snp_dnn_0.0_boat_10_n02951358_5718.png,,,0.0
swag_regnety_128gf_in1k,25,,boat,boat,1111_snp_dnn_0.0_boat_10_n03344393_6758.png,,,0.0
swag_regnety_128gf_in1k,26,,bottle,bottle,1111_snp_dnn_0.0_bottle_10_n03937543_2357.png,,,0.0
swag_regnety_128gf_in1k,27,,bottle,bottle,1111_snp_dnn_0.0_bottle_10_n04560804_13773.png,,,0.0
swag_regnety_128gf_in1k,28,,bottle,bottle,1111_snp_dnn_0.0_bottle_10_n04560804_19872.png,,,0.0
swag_regnety_128gf_in1k,29,,bottle,bottle,1111_snp_dnn_0.0_bottle_10_n04591713_2024.png,,,0.0
swag_regnety_128gf_in1k,30,,bottle,bottle,1111_snp_dnn_0.0_bottle_10_n04591713_2718.png,,,0.0
swag_regnety_128gf_in1k,31,,car,car,1111_snp_dnn_0.0_car_10_n02814533_32461.png,,,0.0
swag_regnety_128gf_in1k,32,,car,car,1111_snp_dnn_0.0_car_10_n03100240_24331.png,,,0.0
swag_regnety_128gf_in1k,33,,car,car,1111_snp_dnn_0.0_car_10_n03100240_418.png,,,0.0
swag_regnety_128gf_in1k,34,,car,car,1111_snp_dnn_0.0_car_10_n04285008_2789.png,,,0.0
swag_regnety_128gf_in1k,35,,car,car,1111_snp_dnn_0.0_car_10_n04285008_88.png,,,0.0
swag_regnety_128gf_in1k,36,,cat,cat,1111_snp_dnn_0.0_cat_10_n02123045_964.png,,,0.0
swag_regnety_128gf_in1k,37,,cat,cat,1111_snp_dnn_0.0_cat_10_n02123159_3330.png,,,0.0
swag_regnety_128gf_in1k,38,,cat,cat,1111_snp_dnn_0.0_cat_10_n02123597_3037.png,,,0.0
swag_regnety_128gf_in1k,39,,cat,cat,1111_snp_dnn_0.0_cat_10_n02123597_5017.png,,,0.0
swag_regnety_128gf_in1k,40,,cat,cat,1111_snp_dnn_0.0_cat_10_n02124075_14094.png,,,0.0
swag_regnety_128gf_in1k,41,,chair,chair,1111_snp_dnn_0.0_chair_10_n02791124_9124.png,,,0.0
swag_regnety_128gf_in1k,42,,chair,chair,1111_snp_dnn_0.0_chair_10_n04099969_20900.png,,,0.0
swag_regnety_128gf_in1k,43,,chair,chair,1111_snp_dnn_0.0_chair_10_n04429376_10128.png,,,0.0
swag_regnety_128gf_in1k,44,,chair,chair,1111_snp_dnn_0.0_chair_10_n04429376_42324.png,,,0.0
swag_regnety_128gf_in1k,45,,chair,chair,1111_snp_dnn_0.0_chair_10_n04429376_9212.png,,,0.0
swag_regnety_128gf_in1k,46,,clock,clock,1111_snp_dnn_0.0_clock_10_n02708093_3459.png,,,0.0
swag_regnety_128gf_in1k,47,,clock,clock,1111_snp_dnn_0.0_clock_10_n03196217_585.png,,,0.0
swag_regnety_128gf_in1k,48,,clock,clock,1111_snp_dnn_0.0_clock_10_n03196217_6809.png,,,0.0
swag_regnety_128gf_in1k,49,,clock,clock,1111_snp_dnn_0.0_clock_10_n04548280_711.png,,,0.0
swag_regnety_128gf_in1k,50,,clock,clock,1111_snp_dnn_0.0_clock_10_n04548280_7490.png,,,0.0
swag_regnety_128gf_in1k,51,,dog,dog,1111_snp_dnn_0.0_dog_10_n02096437_6439.png,,,0.0
swag_regnety_128gf_in1k,52,,dog,dog,1111_snp_dnn_0.0_dog_10_n02098105_1796.png,,,0.0
swag_regnety_128gf_in1k,53,,dog,dog,1111_snp_dnn_0.0_dog_10_n02100877_20916.png,,,0.0
swag_regnety_128gf_in1k,54,,dog,dog,1111_snp_dnn_0.0_dog_10_n02105056_9209.png,,,0.0
swag_regnety_128gf_in1k,55,,dog,dog,1111_snp_dnn_0.0_dog_10_n02112706_2952.png,,,0.0
swag_regnety_128gf_in1k,56,,elephant,elephant,1111_snp_dnn_0.0_elephant_10_n02504013_19694.png,,,0.0
swag_regnety_128gf_in1k,57,,elephant,elephant,1111_snp_dnn_0.0_elephant_10_n02504013_868.png,,,0.0
swag_regnety_128gf_in1k,58,,elephant,elephant,1111_snp_dnn_0.0_elephant_10_n02504458_3140.png,,,0.0
swag_regnety_128gf_in1k,59,,elephant,elephant,1111_snp_dnn_0.0_elephant_10_n02504458_4336.png,,,0.0
swag_regnety_128gf_in1k,60,,elephant,elephant,1111_snp_dnn_0.0_elephant_10_n02504458_7013.png,,,0.0
swag_regnety_128gf_in1k,61,,keyboard,keyboard,1111_snp_dnn_0.0_keyboard_10_n03085013_1483.png,,,0.0
swag_regnety_128gf_in1k,62,,keyboard,keyboard,1111_snp_dnn_0.0_keyboard_10_n03085013_19436.png,,,0.0
swag_regnety_128gf_in1k,63,,keyboard,keyboard,1111_snp_dnn_0.0_keyboard_10_n03085013_24455.png,,,0.0
swag_regnety_128gf_in1k,64,,keyboard,keyboard,1111_snp_dnn_0.0_keyboard_10_n03085013_25181.png,,,0.0
swag_regnety_128gf_in1k,65,,keyboard,keyboard,1111_snp_dnn_0.0_keyboard_10_n03085013_4160.png,,,0.0
swag_regnety_128gf_in1k,66,,knife,knife,1111_snp_dnn_0.0_knife_10_n03041632_11797.png,,,0.0
swag_regnety_128gf_in1k,67,,knife,knife,1111_snp_dnn_0.0_knife_10_n03041632_24114.png,,,0.0
swag_regnety_128gf_in1k,68,,knife,knife,1111_snp_dnn_0.0_knife_10_n03041632_3210.png,,,0.0
swag_regnety_128gf_in1k,69,,knife,knife,1111_snp_dnn_0.0_knife_10_n03041632_47743.png,,,0.0
swag_regnety_128gf_in1k,70,,knife,knife,1111_snp_dnn_0.0_knife_10_n03041632_4808.png,,,0.0
swag_regnety_128gf_in1k,71,,oven,oven,1111_snp_dnn_0.0_oven_10_n04111531_10306.png,,,0.0
swag_regnety_128gf_in1k,72,,oven,oven,1111_snp_dnn_0.0_oven_10_n04111531_13247.png,,,0.0
swag_regnety_128gf_in1k,73,,oven,oven,1111_snp_dnn_0.0_oven_10_n04111531_21973.png,,,0.0
swag_regnety_128gf_in1k,74,,oven,oven,1111_snp_dnn_0.0_oven_10_n04111531_23215.png,,,0.0
swag_regnety_128gf_in1k,75,,oven,oven,1111_snp_dnn_0.0_oven_10_n04111531_2930.png,,,0.0
swag_regnety_128gf_in1k,76,,truck,truck,1111_snp_dnn_0.0_truck_10_n03417042_11.png,,,0.0
swag_regnety_128gf_in1k,77,,truck,truck,1111_snp_dnn_0.0_truck_10_n03417042_19905.png,,,0.0
swag_regnety_128gf_in1k,78,,truck,truck,1111_snp_dnn_0.0_truck_10_n03417042_23440.png,,,0.0
swag_regnety_128gf_in1k,79,,truck,truck,1111_snp_dnn_0.0_truck_10_n03417042_28078.png,,,0.0
swag_regnety_128gf_in1k,80,,truck,truck,1111_snp_dnn_0.0_truck_10_n03796401_4495.png,,,0.0
swag_regnety_128gf_in1k,81,,airplane,airplane,1111_snp_dnn_0.1_airplane_10_n02690373_1161.png,,,0.1
swag_regnety_128gf_in1k,82,,airplane,airplane,1111_snp_dnn_0.1_airplane_10_n02690373_1277.png,,,0.1
swag_regnety_128gf_in1k,83,,airplane,airplane,1111_snp_dnn_0.1_airplane_10_n02690373_1837.png,,,0.1
swag_regnety_128gf_in1k,84,,airplane,airplane,1111_snp_dnn_0.1_airplane_10_n02690373_3874.png,,,0.1
swag_regnety_128gf_in1k,85,,airplane,airplane,1111_snp_dnn_0.1_airplane_10_n02690373_5870.png,,,0.1
swag_regnety_128gf_in1k,86,,bear,bear,1111_snp_dnn_0.1_bear_10_n02132136_11149.png,,,0.1
swag_regnety_128gf_in1k,87,,bear,bear,1111_snp_dnn_0.1_bear_10_n02133161_2137.png,,,0.1
swag_regnety_128gf_in1k,88,,bear,bear,1111_snp_dnn_0.1_bear_10_n02134084_34728.png,,,0.1
swag_regnety_128gf_in1k,89,,bear,bear,1111_snp_dnn_0.1_bear_10_n02134084_4612.png,,,0.1
swag_regnety_128gf_in1k,90,,bear,bear,1111_snp_dnn_0.1_bear_10_n02134084_6343.png,,,0.1
swag_regnety_128gf_in1k,91,,bicycle,bicycle,1111_snp_dnn_0.1_bicycle_10_n02835271_15925.png,,,0.1
swag_regnety_128gf_in1k,92,,bicycle,bicycle,1111_snp_dnn_0.1_bicycle_10_n03792782_23560.png,,,0.1
swag_regnety_128gf_in1k,93,,bicycle,bicycle,1111_snp_dnn_0.1_bicycle_10_n03792782_33855.png,,,0.1
swag_regnety_128gf_in1k,94,,bicycle,bicycle,1111_snp_dnn_0.1_bicycle_10_n03792782_3467.png,,,0.1
swag_regnety_128gf_in1k,95,,bicycle,bicycle,1111_snp_dnn_0.1_bicycle_10_n03792782_52601.png,,,0.1
swag_regnety_128gf_in1k,96,,bird,bird,1111_snp_dnn_0.1_bird_10_n01601694_13334.png,,,0.1
swag_regnety_128gf_in1k,97,,bird,bird,1111_snp_dnn_0.1_bird_10_n01843383_8077.png,,,0.1
swag_regnety_128gf_in1k,98,,bird,bird,1111_snp_dnn_0.1_bird_10_n02007558_45529.png,,,0.1
swag_regnety_128gf_in1k,99,,bird,bird,1111_snp_dnn_0.1_bird_10_n02009229_5962.png,,,0.1
swag_regnety_128gf_in1k,100,,bird,bird,1111_snp_dnn_0.1_bird_10_n02027492_2004.png,,,0.1
swag_regnety_128gf_in1k,101,,boat,boat,1111_snp_dnn_0.1_boat_10_n02951358_14612.png,,,0.1
swag_regnety_128gf_in1k,102,,boat,boat,1111_snp_dnn_0.1_boat_10_n02951358_2853.png,,,0.1
swag_regnety_128gf_in1k,103,,knife,boat,1111_snp_dnn_0.1_boat_10_n03344393_302.png,,,0.1
swag_regnety_128gf_in1k,104,,boat,boat,1111_snp_dnn_0.1_boat_10_n04273569_1141.png,,,0.1
swag_regnety_128gf_in1k,105,,boat,boat,1111_snp_dnn_0.1_boat_10_n04273569_13091.png,,,0.1
swag_regnety_128gf_in1k,106,,bottle,bottle,1111_snp_dnn_0.1_bottle_10_n03983396_11337.png,,,0.1
swag_regnety_128gf_in1k,107,,bottle,bottle,1111_snp_dnn_0.1_bottle_10_n03983396_4843.png,,,0.1
swag_regnety_128gf_in1k,108,,bottle,bottle,1111_snp_dnn_0.1_bottle_10_n04560804_11601.png,,,0.1
swag_regnety_128gf_in1k,109,,bottle,bottle,1111_snp_dnn_0.1_bottle_10_n04579145_1302.png,,,0.1
swag_regnety_128gf_in1k,110,,bottle,bottle,1111_snp_dnn_0.1_bottle_10_n04591713_6238.png,,,0.1
swag_regnety_128gf_in1k,111,,car,car,1111_snp_dnn_0.1_car_10_n02814533_83068.png,,,0.1
swag_regnety_128gf_in1k,112,,car,car,1111_snp_dnn_0.1_car_10_n02814533_89061.png,,,0.1
swag_regnety_128gf_in1k,113,,car,car,1111_snp_dnn_0.1_car_10_n04285008_10287.png,,,0.1
swag_regnety_128gf_in1k,114,,car,car,1111_snp_dnn_0.1_car_10_n04285008_3280.png,,,0.1
swag_regnety_128gf_in1k,115,,car,car,1111_snp_dnn_0.1_car_10_n04285008_7096.png,,,0.1
swag_regnety_128gf_in1k,116,,cat,cat,1111_snp_dnn_0.1_cat_10_n02123159_2684.png,,,0.1
swag_regnety_128gf_in1k,117,,cat,cat,1111_snp_dnn_0.1_cat_10_n02124075_3533.png,,,0.1
swag_regnety_128gf_in1k,118,,cat,cat,1111_snp_dnn_0.1_cat_10_n02124075_862.png,,,0.1
swag_regnety_128gf_in1k,119,,cat,cat,1111_snp_dnn_0.1_cat_10_n02124075_8754.png,,,0.1
swag_regnety_128gf_in1k,120,,cat,cat,1111_snp_dnn_0.1_cat_10_n02124075_9716.png,,,0.1
swag_regnety_128gf_in1k,121,,chair,chair,1111_snp_dnn_0.1_chair_10_n02791124_141.png,,,0.1
swag_regnety_128gf_in1k,122,,chair,chair,1111_snp_dnn_0.1_chair_10_n02791124_2470.png,,,0.1
swag_regnety_128gf_in1k,123,,chair,chair,1111_snp_dnn_0.1_chair_10_n03376595_820.png,,,0.1
swag_regnety_128gf_in1k,124,,chair,chair,1111_snp_dnn_0.1_chair_10_n04099969_13056.png,,,0.1
swag_regnety_128gf_in1k,125,,chair,chair,1111_snp_dnn_0.1_chair_10_n04099969_2398.png,,,0.1
swag_regnety_128gf_in1k,126,,clock,clock,1111_snp_dnn_0.1_clock_10_n02708093_1431.png,,,0.1
swag_regnety_128gf_in1k,127,,clock,clock,1111_snp_dnn_0.1_clock_10_n02708093_2843.png,,,0.1
swag_regnety_128gf_in1k,128,,clock,clock,1111_snp_dnn_0.1_clock_10_n03196217_3943.png,,,0.1
swag_regnety_128gf_in1k,129,,clock,clock,1111_snp_dnn_0.1_clock_10_n03196217_5478.png,,,0.1
swag_regnety_128gf_in1k,130,,clock,clock,1111_snp_dnn_0.1_clock_10_n03196217_8614.png,,,0.1
swag_regnety_128gf_in1k,131,,dog,dog,1111_snp_dnn_0.1_dog_10_n02101556_7442.png,,,0.1
swag_regnety_128gf_in1k,132,,dog,dog,1111_snp_dnn_0.1_dog_10_n02102318_11816.png,,,0.1
swag_regnety_128gf_in1k,133,,dog,dog,1111_snp_dnn_0.1_dog_10_n02106382_14862.png,,,0.1
swag_regnety_128gf_in1k,134,,dog,dog,1111_snp_dnn_0.1_dog_10_n02108000_324.png,,,0.1
swag_regnety_128gf_in1k,135,,dog,dog,1111_snp_dnn_0.1_dog_10_n02113624_1203.png,,,0.1
swag_regnety_128gf_in1k,136,,elephant,elephant,1111_snp_dnn_0.1_elephant_10_n02504013_1916.png,,,0.1
swag_regnety_128gf_in1k,137,,dog,elephant,1111_snp_dnn_0.1_elephant_10_n02504013_3141.png,,,0.1
swag_regnety_128gf_in1k,138,,elephant,elephant,1111_snp_dnn_0.1_elephant_10_n02504458_3953.png,,,0.1
swag_regnety_128gf_in1k,139,,elephant,elephant,1111_snp_dnn_0.1_elephant_10_n02504458_4954.png,,,0.1
swag_regnety_128gf_in1k,140,,elephant,elephant,1111_snp_dnn_0.1_elephant_10_n02504458_7408.png,,,0.1
swag_regnety_128gf_in1k,141,,keyboard,keyboard,1111_snp_dnn_0.1_keyboard_10_n03085013_24618.png,,,0.1
swag_regnety_128gf_in1k,142,,keyboard,keyboard,1111_snp_dnn_0.1_keyboard_10_n04505470_1430.png,,,0.1
swag_regnety_128gf_in1k,143,,keyboard,keyboard,1111_snp_dnn_0.1_keyboard_10_n04505470_1833.png,,,0.1
swag_regnety_128gf_in1k,144,,keyboard,keyboard,1111_snp_dnn_0.1_keyboard_10_n04505470_2115.png,,,0.1
swag_regnety_128gf_in1k,145,,keyboard,keyboard,1111_snp_dnn_0.1_keyboard_10_n04505470_933.png,,,0.1
swag_regnety_128gf_in1k,146,,knife,knife,1111_snp_dnn_0.1_knife_10_n03041632_105081.png,,,0.1
swag_regnety_128gf_in1k,147,,knife,knife,1111_snp_dnn_0.1_knife_10_n03041632_15444.png,,,0.1
swag_regnety_128gf_in1k,148,,knife,knife,1111_snp_dnn_0.1_knife_10_n03041632_17338.png,,,0.1
swag_regnety_128gf_in1k,149,,knife,knife,1111_snp_dnn_0.1_knife_10_n03041632_24277.png,,,0.1
swag_regnety_128gf_in1k,150,,knife,knife,1111_snp_dnn_0.1_knife_10_n03041632_25022.png,,,0.1
swag_regnety_128gf_in1k,151,,oven,oven,1111_snp_dnn_0.1_oven_10_n04111531_1229.png,,,0.1
swag_regnety_128gf_in1k,152,,oven,oven,1111_snp_dnn_0.1_oven_10_n04111531_18592.png,,,0.1
swag_regnety_128gf_in1k,153,,oven,oven,1111_snp_dnn_0.1_oven_10_n04111531_4.png,,,0.1
swag_regnety_128gf_in1k,154,,oven,oven,1111_snp_dnn_0.1_oven_10_n04111531_9490.png,,,0.1
swag_regnety_128gf_in1k,155,,oven,oven,1111_snp_dnn_0.1_oven_10_n04111531_9712.png,,,0.1
swag_regnety_128gf_in1k,156,,truck,truck,1111_snp_dnn_0.1_truck_10_n03417042_10300.png,,,0.1
swag_regnety_128gf_in1k,157,,truck,truck,1111_snp_dnn_0.1_truck_10_n03417042_12133.png,,,0.1
swag_regnety_128gf_in1k,158,,truck,truck,1111_snp_dnn_0.1_truck_10_n03417042_12486.png,,,0.1
swag_regnety_128gf_in1k,159,,truck,truck,1111_snp_dnn_0.1_truck_10_n03417042_1656.png,,,0.1
swag_regnety_128gf_in1k,160,,truck,truck,1111_snp_dnn_0.1_truck_10_n03796401_14381.png,,,0.1
swag_regnety_128gf_in1k,161,,airplane,airplane,1111_snp_dnn_0.2_airplane_10_n02690373_14117.png,,,0.2
swag_regnety_128gf_in1k,162,,airplane,airplane,1111_snp_dnn_0.2_airplane_10_n02690373_3912.png,,,0.2
swag_regnety_128gf_in1k,163,,airplane,airplane,1111_snp_dnn_0.2_airplane_10_n02690373_4243.png,,,0.2
swag_regnety_128gf_in1k,164,,airplane,airplane,1111_snp_dnn_0.2_airplane_10_n02690373_6231.png,,,0.2
swag_regnety_128gf_in1k,165,,airplane,airplane,1111_snp_dnn_0.2_airplane_10_n02690373_6853.png,,,0.2
swag_regnety_128gf_in1k,166,,bear,bear,1111_snp_dnn_0.2_bear_10_n02132136_1934.png,,,0.2
swag_regnety_128gf_in1k,167,,bear,bear,1111_snp_dnn_0.2_bear_10_n02132136_5184.png,,,0.2
swag_regnety_128gf_in1k,168,,bear,bear,1111_snp_dnn_0.2_bear_10_n02132136_6787.png,,,0.2
swag_regnety_128gf_in1k,169,,bear,bear,1111_snp_dnn_0.2_bear_10_n02133161_1498.png,,,0.2
swag_regnety_128gf_in1k,170,,bear,bear,1111_snp_dnn_0.2_bear_10_n02134418_4041.png,,,0.2
swag_regnety_128gf_in1k,171,,bicycle,bicycle,1111_snp_dnn_0.2_bicycle_10_n02835271_13131.png,,,0.2
swag_regnety_128gf_in1k,172,,bicycle,bicycle,1111_snp_dnn_0.2_bicycle_10_n02835271_7873.png,,,0.2
swag_regnety_128gf_in1k,173,,bicycle,bicycle,1111_snp_dnn_0.2_bicycle_10_n03792782_1030.png,,,0.2
swag_regnety_128gf_in1k,174,,bicycle,bicycle,1111_snp_dnn_0.2_bicycle_10_n03792782_3631.png,,,0.2
swag_regnety_128gf_in1k,175,,bicycle,bicycle,1111_snp_dnn_0.2_bicycle_10_n03792782_47774.png,,,0.2
swag_regnety_128gf_in1k,176,,bird,bird,1111_snp_dnn_0.2_bird_10_n01532829_22520.png,,,0.2
swag_regnety_128gf_in1k,177,,bird,bird,1111_snp_dnn_0.2_bird_10_n01818515_7890.png,,,0.2
swag_regnety_128gf_in1k,178,,bird,bird,1111_snp_dnn_0.2_bird_10_n01819313_3893.png,,,0.2
swag_regnety_128gf_in1k,179,,bird,bird,1111_snp_dnn_0.2_bird_10_n02007558_10725.png,,,0.2
swag_regnety_128gf_in1k,180,,bird,bird,1111_snp_dnn_0.2_bird_10_n02037110_8732.png,,,0.2
swag_regnety_128gf_in1k,181,,boat,boat,1111_snp_dnn_0.2_boat_10_n02951358_19768.png,,,0.2
swag_regnety_128gf_in1k,182,,airplane,boat,1111_snp_dnn_0.2_boat_10_n03344393_7433.png,,,0.2
swag_regnety_128gf_in1k,183,,boat,boat,1111_snp_dnn_0.2_boat_10_n04612504_30742.png,,,0.2
swag_regnety_128gf_in1k,184,,boat,boat,1111_snp_dnn_0.2_boat_10_n04612504_7166.png,,,0.2
swag_regnety_128gf_in1k,185,,boat,boat,1111_snp_dnn_0.2_boat_10_n04612504_8942.png,,,0.2
swag_regnety_128gf_in1k,186,,bottle,bottle,1111_snp_dnn_0.2_bottle_10_n02823428_825.png,,,0.2
swag_regnety_128gf_in1k,187,,knife,bottle,1111_snp_dnn_0.2_bottle_10_n03937543_3759.png,,,0.2
swag_regnety_128gf_in1k,188,,clock,bottle,1111_snp_dnn_0.2_bottle_10_n04560804_12278.png,,,0.2
swag_regnety_128gf_in1k,189,,bottle,bottle,1111_snp_dnn_0.2_bottle_10_n04591713_595.png,,,0.2
swag_regnety_128gf_in1k,190,,bottle,bottle,1111_snp_dnn_0.2_bottle_10_n04591713_7221.png,,,0.2
swag_regnety_128gf_in1k,191,,car,car,1111_snp_dnn_0.2_car_10_n02814533_1165.png,,,0.2
swag_regnety_128gf_in1k,192,,car,car,1111_snp_dnn_0.2_car_10_n02814533_75974.png,,,0.2
swag_regnety_128gf_in1k,193,,car,car,1111_snp_dnn_0.2_car_10_n02814533_82925.png,,,0.2
swag_regnety_128gf_in1k,194,,car,car,1111_snp_dnn_0.2_car_10_n03100240_5489.png,,,0.2
swag_regnety_128gf_in1k,195,,car,car,1111_snp_dnn_0.2_car_10_n04285008_9470.png,,,0.2
swag_regnety_128gf_in1k,196,,cat,cat,1111_snp_dnn_0.2_cat_10_n02123045_2025.png,,,0.2
swag_regnety_128gf_in1k,197,,cat,cat,1111_snp_dnn_0.2_cat_10_n02123045_9341.png,,,0.2
swag_regnety_128gf_in1k,198,,cat,cat,1111_snp_dnn_0.2_cat_10_n02123159_3226.png,,,0.2
swag_regnety_128gf_in1k,199,,cat,cat,1111_snp_dnn_0.2_cat_10_n02123159_6505.png,,,0.2
swag_regnety_128gf_in1k,200,,cat,cat,1111_snp_dnn_0.2_cat_10_n02124075_20957.png,,,0.2
swag_regnety_128gf_in1k,201,,chair,chair,1111_snp_dnn_0.2_chair_10_n03376595_2566.png,,,0.2
swag_regnety_128gf_in1k,202,,chair,chair,1111_snp_dnn_0.2_chair_10_n03376595_4309.png,,,0.2
swag_regnety_128gf_in1k,203,,chair,chair,1111_snp_dnn_0.2_chair_10_n03376595_4469.png,,,0.2
swag_regnety_128gf_in1k,204,,chair,chair,1111_snp_dnn_0.2_chair_10_n04099969_18182.png,,,0.2
swag_regnety_128gf_in1k,205,,chair,chair,1111_snp_dnn_0.2_chair_10_n04429376_18127.png,,,0.2
swag_regnety_128gf_in1k,206,,clock,clock,1111_snp_dnn_0.2_clock_10_n03196217_4004.png,,,0.2
swag_regnety_128gf_in1k,207,,clock,clock,1111_snp_dnn_0.2_clock_10_n03196217_4417.png,,,0.2
swag_regnety_128gf_in1k,208,,clock,clock,1111_snp_dnn_0.2_clock_10_n04548280_1438.png,,,0.2
swag_regnety_128gf_in1k,209,,clock,clock,1111_snp_dnn_0.2_clock_10_n04548280_2518.png,,,0.2
swag_regnety_128gf_in1k,210,,clock,clock,1111_snp_dnn_0.2_clock_10_n04548280_8585.png,,,0.2
swag_regnety_128gf_in1k,211,,dog,dog,1111_snp_dnn_0.2_dog_10_n02090721_1456.png,,,0.2
swag_regnety_128gf_in1k,212,,dog,dog,1111_snp_dnn_0.2_dog_10_n02097130_1834.png,,,0.2
swag_regnety_128gf_in1k,213,,dog,dog,1111_snp_dnn_0.2_dog_10_n02099712_5781.png,,,0.2
swag_regnety_128gf_in1k,214,,dog,dog,1111_snp_dnn_0.2_dog_10_n02101388_2075.png,,,0.2
swag_regnety_128gf_in1k,215,,dog,dog,1111_snp_dnn_0.2_dog_10_n02107142_1550.png,,,0.2
swag_regnety_128gf_in1k,216,,elephant,elephant,1111_snp_dnn_0.2_elephant_10_n02504013_6660.png,,,0.2
swag_regnety_128gf_in1k,217,,elephant,elephant,1111_snp_dnn_0.2_elephant_10_n02504458_1735.png,,,0.2
swag_regnety_128gf_in1k,218,,elephant,elephant,1111_snp_dnn_0.2_elephant_10_n02504458_1844.png,,,0.2
swag_regnety_128gf_in1k,219,,elephant,elephant,1111_snp_dnn_0.2_elephant_10_n02504458_1998.png,,,0.2
swag_regnety_128gf_in1k,220,,elephant,elephant,1111_snp_dnn_0.2_elephant_10_n02504458_5561.png,,,0.2
swag_regnety_128gf_in1k,221,,keyboard,keyboard,1111_snp_dnn_0.2_keyboard_10_n04505470_1874.png,,,0.2
swag_regnety_128gf_in1k,222,,keyboard,keyboard,1111_snp_dnn_0.2_keyboard_10_n04505470_2570.png,,,0.2
swag_regnety_128gf_in1k,223,,keyboard,keyboard,1111_snp_dnn_0.2_keyboard_10_n04505470_3947.png,,,0.2
swag_regnety_128gf_in1k,224,,keyboard,keyboard,1111_snp_dnn_0.2_keyboard_10_n04505470_4906.png,,,0.2
swag_regnety_128gf_in1k,225,,keyboard,keyboard,1111_snp_dnn_0.2_keyboard_10_n04505470_6272.png,,,0.2
swag_regnety_128gf_in1k,226,,knife,knife,1111_snp_dnn_0.2_knife_10_n03041632_11285.png,,,0.2
swag_regnety_128gf_in1k,227,,knife,knife,1111_snp_dnn_0.2_knife_10_n03041632_32785.png,,,0.2
swag_regnety_128gf_in1k,228,,knife,knife,1111_snp_dnn_0.2_knife_10_n03041632_47410.png,,,0.2
swag_regnety_128gf_in1k,229,,knife,knife,1111_snp_dnn_0.2_knife_10_n03041632_48071.png,,,0.2
swag_regnety_128gf_in1k,230,,knife,knife,1111_snp_dnn_0.2_knife_10_n03041632_83826.png,,,0.2
swag_regnety_128gf_in1k,231,,oven,oven,1111_snp_dnn_0.2_oven_10_n04111531_14611.png,,,0.2
swag_regnety_128gf_in1k,232,,oven,oven,1111_snp_dnn_0.2_oven_10_n04111531_15649.png,,,0.2
swag_regnety_128gf_in1k,233,,oven,oven,1111_snp_dnn_0.2_oven_10_n04111531_2371.png,,,0.2
swag_regnety_128gf_in1k,234,,oven,oven,1111_snp_dnn_0.2_oven_10_n04111531_326.png,,,0.2
swag_regnety_128gf_in1k,235,,oven,oven,1111_snp_dnn_0.2_oven_10_n04111531_9844.png,,,0.2
swag_regnety_128gf_in1k,236,,truck,truck,1111_snp_dnn_0.2_truck_10_n03796401_15756.png,,,0.2
swag_regnety_128gf_in1k,237,,truck,truck,1111_snp_dnn_0.2_truck_10_n03796401_17504.png,,,0.2
swag_regnety_128gf_in1k,238,,truck,truck,1111_snp_dnn_0.2_truck_10_n03796401_19114.png,,,0.2
swag_regnety_128gf_in1k,239,,truck,truck,1111_snp_dnn_0.2_truck_10_n03796401_4309.png,,,0.2
swag_regnety_128gf_in1k,240,,truck,truck,1111_snp_dnn_0.2_truck_10_n04467665_11776.png,,,0.2
swag_regnety_128gf_in1k,241,,airplane,airplane,1111_snp_dnn_0.35_airplane_10_n02690373_1071.png,,,0.35
swag_regnety_128gf_in1k,242,,airplane,airplane,1111_snp_dnn_0.35_airplane_10_n02690373_2024.png,,,0.35
swag_regnety_128gf_in1k,243,,airplane,airplane,1111_snp_dnn_0.35_airplane_10_n02690373_2070.png,,,0.35
swag_regnety_128gf_in1k,244,,airplane,airplane,1111_snp_dnn_0.35_airplane_10_n02690373_4728.png,,,0.35
swag_regnety_128gf_in1k,245,,airplane,airplane,1111_snp_dnn_0.35_airplane_10_n02690373_6999.png,,,0.35
swag_regnety_128gf_in1k,246,,bear,bear,1111_snp_dnn_0.35_bear_10_n02132136_3169.png,,,0.35
swag_regnety_128gf_in1k,247,,bear,bear,1111_snp_dnn_0.35_bear_10_n02133161_10314.png,,,0.35
swag_regnety_128gf_in1k,248,,bear,bear,1111_snp_dnn_0.35_bear_10_n02134084_10224.png,,,0.35
swag_regnety_128gf_in1k,249,,bear,bear,1111_snp_dnn_0.35_bear_10_n02134084_2004.png,,,0.35
swag_regnety_128gf_in1k,250,,bear,bear,1111_snp_dnn_0.35_bear_10_n02134418_4895.png,,,0.35
swag_regnety_128gf_in1k,251,,bicycle,bicycle,1111_snp_dnn_0.35_bicycle_10_n02835271_15038.png,,,0.35
swag_regnety_128gf_in1k,252,,bicycle,bicycle,1111_snp_dnn_0.35_bicycle_10_n02835271_8273.png,,,0.35
swag_regnety_128gf_in1k,253,,clock,bicycle,1111_snp_dnn_0.35_bicycle_10_n03792782_11597.png,,,0.35
swag_regnety_128gf_in1k,254,,bicycle,bicycle,1111_snp_dnn_0.35_bicycle_10_n03792782_17337.png,,,0.35
swag_regnety_128gf_in1k,255,,bicycle,bicycle,1111_snp_dnn_0.35_bicycle_10_n03792782_692.png,,,0.35
swag_regnety_128gf_in1k,256,,bird,bird,1111_snp_dnn_0.35_bird_10_n01531178_8282.png,,,0.35
swag_regnety_128gf_in1k,257,,bird,bird,1111_snp_dnn_0.35_bird_10_n01537544_2772.png,,,0.35
swag_regnety_128gf_in1k,258,,bear,bird,1111_snp_dnn_0.35_bird_10_n01860187_6891.png,,,0.35
swag_regnety_128gf_in1k,259,,bird,bird,1111_snp_dnn_0.35_bird_10_n02025239_22501.png,,,0.35
swag_regnety_128gf_in1k,260,,bird,bird,1111_snp_dnn_0.35_bird_10_n02033041_6633.png,,,0.35
swag_regnety_128gf_in1k,261,,boat,boat,1111_snp_dnn_0.35_boat_10_n02951358_31835.png,,,0.35
swag_regnety_128gf_in1k,262,,boat,boat,1111_snp_dnn_0.35_boat_10_n02951358_34051.png,,,0.35
swag_regnety_128gf_in1k,263,,keyboard,boat,1111_snp_dnn_0.35_boat_10_n02951358_34441.png,,,0.35
swag_regnety_128gf_in1k,264,,boat,boat,1111_snp_dnn_0.35_boat_10_n02951358_4826.png,,,0.35
swag_regnety_128gf_in1k,265,,boat,boat,1111_snp_dnn_0.35_boat_10_n02951358_8194.png,,,0.35
swag_regnety_128gf_in1k,266,,keyboard,bottle,1111_snp_dnn_0.35_bottle_10_n02823428_7033.png,,,0.35
swag_regnety_128gf_in1k,267,,bottle,bottle,1111_snp_dnn_0.35_bottle_10_n04560804_15228.png,,,0.35
swag_regnety_128gf_in1k,268,,clock,bottle,1111_snp_dnn_0.35_bottle_10_n04560804_32398.png,,,0.35
swag_regnety_128gf_in1k,269,,bicycle,bottle,1111_snp_dnn_0.35_bottle_10_n04560804_9813.png,,,0.35
swag_regnety_128gf_in1k,270,,bottle,bottle,1111_snp_dnn_0.35_bottle_10_n04591713_5754.png,,,0.35
swag_regnety_128gf_in1k,271,,car,car,1111_snp_dnn_0.35_car_10_n02814533_18458.png,,,0.35
swag_regnety_128gf_in1k,272,,truck,car,1111_snp_dnn_0.35_car_10_n02814533_23512.png,,,0.35
swag_regnety_128gf_in1k,273,,car,car,1111_snp_dnn_0.35_car_10_n02814533_27150.png,,,0.35
swag_regnety_128gf_in1k,274,,car,car,1111_snp_dnn_0.35_car_10_n03100240_6805.png,,,0.35
swag_regnety_128gf_in1k,275,,car,car,1111_snp_dnn_0.35_car_10_n03100240_6954.png,,,0.35
swag_regnety_128gf_in1k,276,,cat,cat,1111_snp_dnn_0.35_cat_10_n02123045_8774.png,,,0.35
swag_regnety_128gf_in1k,277,,clock,cat,1111_snp_dnn_0.35_cat_10_n02123394_2364.png,,,0.35
swag_regnety_128gf_in1k,278,,cat,cat,1111_snp_dnn_0.35_cat_10_n02123394_2690.png,,,0.35
swag_regnety_128gf_in1k,279,,bear,cat,1111_snp_dnn_0.35_cat_10_n02123394_2903.png,,,0.35
swag_regnety_128gf_in1k,280,,cat,cat,1111_snp_dnn_0.35_cat_10_n02124075_8351.png,,,0.35
swag_regnety_128gf_in1k,281,,clock,chair,1111_snp_dnn_0.35_chair_10_n03376595_6837.png,,,0.35
swag_regnety_128gf_in1k,282,,chair,chair,1111_snp_dnn_0.35_chair_10_n04099969_2267.png,,,0.35
swag_regnety_128gf_in1k,283,,keyboard,chair,1111_snp_dnn_0.35_chair_10_n04429376_19101.png,,,0.35
swag_regnety_128gf_in1k,284,,clock,chair,1111_snp_dnn_0.35_chair_10_n04429376_3620.png,,,0.35
swag_regnety_128gf_in1k,285,,chair,chair,1111_snp_dnn_0.35_chair_10_n04429376_8395.png,,,0.35
swag_regnety_128gf_in1k,286,,clock,clock,1111_snp_dnn_0.35_clock_10_n02708093_462.png,,,0.35
swag_regnety_128gf_in1k,287,,clock,clock,1111_snp_dnn_0.35_clock_10_n03196217_5252.png,,,0.35
swag_regnety_128gf_in1k,288,,clock,clock,1111_snp_dnn_0.35_clock_10_n03196217_8943.png,,,0.35
swag_regnety_128gf_in1k,289,,clock,clock,1111_snp_dnn_0.35_clock_10_n04548280_11068.png,,,0.35
swag_regnety_128gf_in1k,290,,clock,clock,1111_snp_dnn_0.35_clock_10_n04548280_3997.png,,,0.35
swag_regnety_128gf_in1k,291,,dog,dog,1111_snp_dnn_0.35_dog_10_n02088632_2814.png,,,0.35
swag_regnety_128gf_in1k,292,,dog,dog,1111_snp_dnn_0.35_dog_10_n02105056_328.png,,,0.35
swag_regnety_128gf_in1k,293,,bear,dog,1111_snp_dnn_0.35_dog_10_n02110806_16707.png,,,0.35
swag_regnety_128gf_in1k,294,,cat,dog,1111_snp_dnn_0.35_dog_10_n02110806_2586.png,,,0.35
swag_regnety_128gf_in1k,295,,clock,dog,1111_snp_dnn_0.35_dog_10_n02112018_370.png,,,0.35
swag_regnety_128gf_in1k,296,,bear,elephant,1111_snp_dnn_0.35_elephant_10_n02504013_10462.png,,,0.35
swag_regnety_128gf_in1k,297,,bear,elephant,1111_snp_dnn_0.35_elephant_10_n02504013_8385.png,,,0.35
swag_regnety_128gf_in1k,298,,elephant,elephant,1111_snp_dnn_0.35_elephant_10_n02504458_1848.png,,,0.35
swag_regnety_128gf_in1k,299,,elephant,elephant,1111_snp_dnn_0.35_elephant_10_n02504458_4.png,,,0.35
swag_regnety_128gf_in1k,300,,elephant,elephant,1111_snp_dnn_0.35_elephant_10_n02504458_5176.png,,,0.35
swag_regnety_128gf_in1k,301,,keyboard,keyboard,1111_snp_dnn_0.35_keyboard_10_n03085013_17762.png,,,0.35
swag_regnety_128gf_in1k,302,,keyboard,keyboard,1111_snp_dnn_0.35_keyboard_10_n03085013_2122.png,,,0.35
swag_regnety_128gf_in1k,303,,keyboard,keyboard,1111_snp_dnn_0.35_keyboard_10_n03085013_24577.png,,,0.35
swag_regnety_128gf_in1k,304,,keyboard,keyboard,1111_snp_dnn_0.35_keyboard_10_n03085013_6038.png,,,0.35
swag_regnety_128gf_in1k,305,,keyboard,keyboard,1111_snp_dnn_0.35_keyboard_10_n03085013_6978.png,,,0.35
swag_regnety_128gf_in1k,306,,knife,knife,1111_snp_dnn_0.35_knife_10_n03041632_11475.png,,,0.35
swag_regnety_128gf_in1k,307,,cat,knife,1111_snp_dnn_0.35_knife_10_n03041632_14224.png,,,0.35
swag_regnety_128gf_in1k,308,,knife,knife,1111_snp_dnn_0.35_knife_10_n03041632_21723.png,,,0.35
swag_regnety_128gf_in1k,309,,knife,knife,1111_snp_dnn_0.35_knife_10_n03041632_26340.png,,,0.35
swag_regnety_128gf_in1k,310,,knife,knife,1111_snp_dnn_0.35_knife_10_n03041632_31909.png,,,0.35
swag_regnety_128gf_in1k,311,,oven,oven,1111_snp_dnn_0.35_oven_10_n04111531_10011.png,,,0.35
swag_regnety_128gf_in1k,312,,oven,oven,1111_snp_dnn_0.35_oven_10_n04111531_1054.png,,,0.35
swag_regnety_128gf_in1k,313,,keyboard,oven,1111_snp_dnn_0.35_oven_10_n04111531_11530.png,,,0.35
swag_regnety_128gf_in1k,314,,oven,oven,1111_snp_dnn_0.35_oven_10_n04111531_18645.png,,,0.35
swag_regnety_128gf_in1k,315,,oven,oven,1111_snp_dnn_0.35_oven_10_n04111531_7034.png,,,0.35
swag_regnety_128gf_in1k,316,,truck,truck,1111_snp_dnn_0.35_truck_10_n03417042_10043.png,,,0.35
swag_regnety_128gf_in1k,317,,truck,truck,1111_snp_dnn_0.35_truck_10_n03417042_14000.png,,,0.35
swag_regnety_128gf_in1k,318,,truck,truck,1111_snp_dnn_0.35_truck_10_n03417042_16389.png,,,0.35
swag_regnety_128gf_in1k,319,,truck,truck,1111_snp_dnn_0.35_truck_10_n04467665_1077.png,,,0.35
swag_regnety_128gf_in1k,320,,truck,truck,1111_snp_dnn_0.35_truck_10_n04467665_50932.png,,,0.35
