subj,trial,rt,object_response,category,imagename,age,block,difficulty
vgg19,1,,airplane,airplane,1111_snp_dnn_0.0_airplane_10_n02690373_18693.png,,,0.0
vgg19,2,,airplane,airplane,1111_snp_dnn_0.0_airplane_10_n02690373_19152.png,,,0.0
vgg19,3,,airplane,airplane,1111_snp_dnn_0.0_airplane_10_n02690373_2435.png,,,0.0
vgg19,4,,airplane,airplane,1111_snp_dnn_0.0_airplane_10_n02690373_3993.png,,,0.0
vgg19,5,,airplane,airplane,1111_snp_dnn_0.0_airplane_10_n02690373_8789.png,,,0.0
vgg19,6,,bear,bear,1111_snp_dnn_0.0_bear_10_n02134084_19407.png,,,0.0
vgg19,7,,bear,bear,1111_snp_dnn_0.0_bear_10_n02134084_5027.png,,,0.0
vgg19,8,,bear,bear,1111_snp_dnn_0.0_bear_10_n02134418_4886.png,,,0.0
vgg19,9,,bear,bear,1111_snp_dnn_0.0_bear_10_n02134418_703.png,,,0.0
vgg19,10,,bear,bear,1111_snp_dnn_0.0_bear_10_n02134418_832.png,,,0.0
vgg19,11,,bicycle,bicycle,1111_snp_dnn_0.0_bicycle_10_n02835271_1299.png,,,0.0
vgg19,12,,bicycle,bicycle,1111_snp_dnn_0.0_bicycle_10_n02835271_276.png,,,0.0
vgg19,13,,bicycle,bicycle,1111_snp_dnn_0.0_bicycle_10_n02835271_8081.png,,,0.0
vgg19,14,,bicycle,bicycle,1111_snp_dnn_0.0_bicycle_10_n03792782_14216.png,,,0.0
vgg19,15,,bicycle,bicycle,1111_snp_dnn_0.0_bicycle_10_n03792782_3047.png,,,0.0
vgg19,16,,bird,bird,1111_snp_dnn_0.0_bird_10_n01530575_4260.png,,,0.0
vgg19,17,,bird,bird,1111_snp_dnn_0.0_bird_10_n01530575_6098.png,,,0.0
vgg19,18,,bird,bird,1111_snp_dnn_0.0_bird_10_n01537544_15048.png,,,0.0
vgg19,19,,bird,bird,1111_snp_dnn_0.0_bird_10_n02018795_11949.png,,,0.0
vgg19,20,,bird,bird,1111_snp_dnn_0.0_bird_10_n02037110_11551.png,,,0.0
vgg19,21,,boat,boat,1111_snp_dnn_0.0_boat_10_n02951358_12866.png,,,0.0
vgg19,22,,boat,boat,1111_snp_dnn_0.0_boat_10_n02951358_15424.png,,,0.0
vgg19,23,,boat,boat,1111_snp_dnn_0.0_boat_10_n02951358_32429.png,,,0.0
vgg19,24,,boat,boat,1111_snp_dnn_0.0_boat_10_n02951358_5718.png,,,0.0
vgg19,25,,boat,boat,1111_snp_dnn_0.0_boat_10_n03344393_6758.png,,,0.0
vgg19,26,,bottle,bottle,1111_snp_dnn_0.0_bottle_10_n03937543_2357.png,,,0.0
vgg19,27,,bottle,bottle,1111_snp_dnn_0.0_bottle_10_n04560804_13773.png,,,0.0
vgg19,28,,bottle,bottle,1111_snp_dnn_0.0_bottle_10_n04560804_19872.png,,,0.0
vgg19,29,,bottle,bottle,1111_snp_dnn_0.0_bottle_10_n04591713_2024.png,,,0.0
vgg19,30,,bottle,bottle,1111_snp_dnn_0.0_bottle_10_n04591713_2718.png,,,0.0
vgg19,31,,car,car,1111_snp_dnn_0.0_car_10_n02814533_32461.png,,,0.0
vgg19,32,,car,car,1111_snp_dnn_0.0_car_10_n03100240_24331.png,,,0.0
vgg19,33,,car,car,1111_snp_dnn_0.0_car_10_n03100240_418.png,,,0.0
vgg19,34,,car,car,1111_snp_dnn_0.0_car_10_n04285008_2789.png,,,0.0
vgg19,35,,car,car,1111_snp_dnn_0.0_car_10_n04285008_88.png,,,0.0
vgg19,36,,cat,cat,1111_snp_dnn_0.0_cat_10_n02123045_964.png,,,0.0
vgg19,37,,cat,cat,1111_snp_dnn_0.0_cat_10_n02123159_3330.png,,,0.0
vgg19,38,,cat,cat,1111_snp_dnn_0.0_cat_10_n02123597_3037.png,,,0.0
vgg19,39,,cat,cat,1111_snp_dnn_0.0_cat_10_n02123597_5017.png,,,0.0
vgg19,40,,cat,cat,1111_snp_dnn_0.0_cat_10_n02124075_14094.png,,,0.0
vgg19,41,,chair,chair,1111_snp_dnn_0.0_chair_10_n02791124_9124.png,,,0.0
vgg19,42,,chair,chair,1111_snp_dnn_0.0_chair_10_n04099969_20900.png,,,0.0
vgg19,43,,chair,chair,1111_snp_dnn_0.0_chair_10_n04429376_10128.png,,,0.0
vgg19,44,,chair,chair,1111_snp_dnn_0.0_chair_10_n04429376_42324.png,,,0.0
vgg19,45,,chair,chair,1111_snp_dnn_0.0_chair_10_n04429376_9212.png,,,0.0
vgg19,46,,clock,clock,1111_snp_dnn_0.0_clock_10_n02708093_3459.png,,,0.0
vgg19,47,,clock,clock,1111_snp_dnn_0.0_clock_10_n03196217_585.png,,,0.0
vgg19,48,,clock,clock,1111_snp_dnn_0.0_clock_10_n03196217_6809.png,,,0.0
vgg19,49,,truck,clock,1111_snp_dnn_0.0_clock_10_n04548280_711.png,,,0.0
vgg19,50,,clock,clock,1111_snp_dnn_0.0_clock_10_n04548280_7490.png,,,0.0
vgg19,51,,dog,dog,1111_snp_dnn_0.0_dog_10_n02096437_6439.png,,,0.0
vgg19,52,,dog,dog,1111_snp_dnn_0.0_dog_10_n02098105_1796.png,,,0.0
vgg19,53,,dog,dog,1111_snp_dnn_0.0_dog_10_n02100877_20916.png,,,0.0
vgg19,54,,dog,dog,1111_snp_dnn_0.0_dog_10_n02105056_9209.png,,,0.0
vgg19,55,,cat,dog,1111_snp_dnn_0.0_dog_10_n02112706_2952.png,,,0.0
vgg19,56,,elephant,elephant,1111_snp_dnn_0.0_elephant_10_n02504013_19694.png,,,0.0
vgg19,57,,elephant,elephant,1111_snp_dnn_0.0_elephant_10_n02504013_868.png,,,0.0
vgg19,58,,elephant,elephant,1111_snp_dnn_0.0_elephant_10_n02504458_3140.png,,,0.0
vgg19,59,,elephant,elephant,1111_snp_dnn_0.0_elephant_10_n02504458_4336.png,,,0.0
vgg19,60,,elephant,elephant,1111_snp_dnn_0.0_elephant_10_n02504458_7013.png,,,0.0
vgg19,61,,keyboard,keyboard,1111_snp_dnn_0.0_keyboard_10_n03085013_1483.png,,,0.0
vgg19,62,,keyboard,keyboard,1111_snp_dnn_0.0_keyboard_10_n03085013_19436.png,,,0.0
vgg19,63,,keyboard,keyboard,1111_snp_dnn_0.0_keyboard_10_n03085013_24455.png,,,0.0
vgg19,64,,keyboard,keyboard,1111_snp_dnn_0.0_keyboard_10_n03085013_25181.png,,,0.0
vgg19,65,,keyboard,keyboard,1111_snp_dnn_0.0_keyboard_10_n03085013_4160.png,,,0.0
vgg19,66,,knife,knife,1111_snp_dnn_0.0_knife_10_n03041632_11797.png,,,0.0
vgg19,67,,knife,knife,1111_snp_dnn_0.0_knife_10_n03041632_24114.png,,,0.0
vgg19,68,,knife,knife,1111_snp_dnn_0.0_knife_10_n03041632_3210.png,,,0.0
vgg19,69,,knife,knife,1111_snp_dnn_0.0_knife_10_n03041632_47743.png,,,0.0
vgg19,70,,knife,knife,1111_snp_dnn_0.0_knife_10_n03041632_4808.png,,,0.0
vgg19,71,,oven,oven,1111_snp_dnn_0.0_oven_10_n04111531_10306.png,,,0.0
vgg19,72,,oven,oven,1111_snp_dnn_0.0_oven_10_n04111531_13247.png,,,0.0
vgg19,73,,oven,oven,1111_snp_dnn_0.0_oven_10_n04111531_21973.png,,,0.0
vgg19,74,,oven,oven,1111_snp_dnn_0.0_oven_10_n04111531_23215.png,,,0.0
vgg19,75,,oven,oven,1111_snp_dnn_0.0_oven_10_n04111531_2930.png,,,0.0
vgg19,76,,truck,truck,1111_snp_dnn_0.0_truck_10_n03417042_11.png,,,0.0
vgg19,77,,truck,truck,1111_snp_dnn_0.0_truck_10_n03417042_19905.png,,,0.0
vgg19,78,,truck,truck,1111_snp_dnn_0.0_truck_10_n03417042_23440.png,,,0.0
vgg19,79,,truck,truck,1111_snp_dnn_0.0_truck_10_n03417042_28078.png,,,0.0
vgg19,80,,truck,truck,1111_snp_dnn_0.0_truck_10_n03796401_4495.png,,,0.0
vgg19,81,,clock,airplane,1111_snp_dnn_0.1_airplane_10_n02690373_1161.png,,,0.1
vgg19,82,,clock,airplane,1111_snp_dnn_0.1_airplane_10_n02690373_1277.png,,,0.1
vgg19,83,,clock,airplane,1111_snp_dnn_0.1_airplane_10_n02690373_1837.png,,,0.1
vgg19,84,,bottle,airplane,1111_snp_dnn_0.1_airplane_10_n02690373_3874.png,,,0.1
vgg19,85,,bottle,airplane,1111_snp_dnn_0.1_airplane_10_n02690373_5870.png,,,0.1
vgg19,86,,boat,bear,1111_snp_dnn_0.1_bear_10_n02132136_11149.png,,,0.1
vgg19,87,,bear,bear,1111_snp_dnn_0.1_bear_10_n02133161_2137.png,,,0.1
vgg19,88,,boat,bear,1111_snp_dnn_0.1_bear_10_n02134084_34728.png,,,0.1
vgg19,89,,bottle,bear,1111_snp_dnn_0.1_bear_10_n02134084_4612.png,,,0.1
vgg19,90,,boat,bear,1111_snp_dnn_0.1_bear_10_n02134084_6343.png,,,0.1
vgg19,91,,bottle,bicycle,1111_snp_dnn_0.1_bicycle_10_n02835271_15925.png,,,0.1
vgg19,92,,bottle,bicycle,1111_snp_dnn_0.1_bicycle_10_n03792782_23560.png,,,0.1
vgg19,93,,bottle,bicycle,1111_snp_dnn_0.1_bicycle_10_n03792782_33855.png,,,0.1
vgg19,94,,clock,bicycle,1111_snp_dnn_0.1_bicycle_10_n03792782_3467.png,,,0.1
vgg19,95,,clock,bicycle,1111_snp_dnn_0.1_bicycle_10_n03792782_52601.png,,,0.1
vgg19,96,,boat,bird,1111_snp_dnn_0.1_bird_10_n01601694_13334.png,,,0.1
vgg19,97,,bottle,bird,1111_snp_dnn_0.1_bird_10_n01843383_8077.png,,,0.1
vgg19,98,,clock,bird,1111_snp_dnn_0.1_bird_10_n02007558_45529.png,,,0.1
vgg19,99,,bird,bird,1111_snp_dnn_0.1_bird_10_n02009229_5962.png,,,0.1
vgg19,100,,boat,bird,1111_snp_dnn_0.1_bird_10_n02027492_2004.png,,,0.1
vgg19,101,,boat,boat,1111_snp_dnn_0.1_boat_10_n02951358_14612.png,,,0.1
vgg19,102,,bottle,boat,1111_snp_dnn_0.1_boat_10_n02951358_2853.png,,,0.1
vgg19,103,,clock,boat,1111_snp_dnn_0.1_boat_10_n03344393_302.png,,,0.1
vgg19,104,,boat,boat,1111_snp_dnn_0.1_boat_10_n04273569_1141.png,,,0.1
vgg19,105,,boat,boat,1111_snp_dnn_0.1_boat_10_n04273569_13091.png,,,0.1
vgg19,106,,bottle,bottle,1111_snp_dnn_0.1_bottle_10_n03983396_11337.png,,,0.1
vgg19,107,,bottle,bottle,1111_snp_dnn_0.1_bottle_10_n03983396_4843.png,,,0.1
vgg19,108,,bottle,bottle,1111_snp_dnn_0.1_bottle_10_n04560804_11601.png,,,0.1
vgg19,109,,clock,bottle,1111_snp_dnn_0.1_bottle_10_n04579145_1302.png,,,0.1
vgg19,110,,bottle,bottle,1111_snp_dnn_0.1_bottle_10_n04591713_6238.png,,,0.1
vgg19,111,,truck,car,1111_snp_dnn_0.1_car_10_n02814533_83068.png,,,0.1
vgg19,112,,bottle,car,1111_snp_dnn_0.1_car_10_n02814533_89061.png,,,0.1
vgg19,113,,bottle,car,1111_snp_dnn_0.1_car_10_n04285008_10287.png,,,0.1
vgg19,114,,bottle,car,1111_snp_dnn_0.1_car_10_n04285008_3280.png,,,0.1
vgg19,115,,bottle,car,1111_snp_dnn_0.1_car_10_n04285008_7096.png,,,0.1
vgg19,116,,bottle,cat,1111_snp_dnn_0.1_cat_10_n02123159_2684.png,,,0.1
vgg19,117,,bottle,cat,1111_snp_dnn_0.1_cat_10_n02124075_3533.png,,,0.1
vgg19,118,,boat,cat,1111_snp_dnn_0.1_cat_10_n02124075_862.png,,,0.1
vgg19,119,,bear,cat,1111_snp_dnn_0.1_cat_10_n02124075_8754.png,,,0.1
vgg19,120,,bear,cat,1111_snp_dnn_0.1_cat_10_n02124075_9716.png,,,0.1
vgg19,121,,bottle,chair,1111_snp_dnn_0.1_chair_10_n02791124_141.png,,,0.1
vgg19,122,,bottle,chair,1111_snp_dnn_0.1_chair_10_n02791124_2470.png,,,0.1
vgg19,123,,keyboard,chair,1111_snp_dnn_0.1_chair_10_n03376595_820.png,,,0.1
vgg19,124,,bottle,chair,1111_snp_dnn_0.1_chair_10_n04099969_13056.png,,,0.1
vgg19,125,,boat,chair,1111_snp_dnn_0.1_chair_10_n04099969_2398.png,,,0.1
vgg19,126,,bottle,clock,1111_snp_dnn_0.1_clock_10_n02708093_1431.png,,,0.1
vgg19,127,,bottle,clock,1111_snp_dnn_0.1_clock_10_n02708093_2843.png,,,0.1
vgg19,128,,clock,clock,1111_snp_dnn_0.1_clock_10_n03196217_3943.png,,,0.1
vgg19,129,,bottle,clock,1111_snp_dnn_0.1_clock_10_n03196217_5478.png,,,0.1
vgg19,130,,bottle,clock,1111_snp_dnn_0.1_clock_10_n03196217_8614.png,,,0.1
vgg19,131,,boat,dog,1111_snp_dnn_0.1_dog_10_n02101556_7442.png,,,0.1
vgg19,132,,boat,dog,1111_snp_dnn_0.1_dog_10_n02102318_11816.png,,,0.1
vgg19,133,,boat,dog,1111_snp_dnn_0.1_dog_10_n02106382_14862.png,,,0.1
vgg19,134,,bear,dog,1111_snp_dnn_0.1_dog_10_n02108000_324.png,,,0.1
vgg19,135,,boat,dog,1111_snp_dnn_0.1_dog_10_n02113624_1203.png,,,0.1
vgg19,136,,elephant,elephant,1111_snp_dnn_0.1_elephant_10_n02504013_1916.png,,,0.1
vgg19,137,,boat,elephant,1111_snp_dnn_0.1_elephant_10_n02504013_3141.png,,,0.1
vgg19,138,,bottle,elephant,1111_snp_dnn_0.1_elephant_10_n02504458_3953.png,,,0.1
vgg19,139,,bottle,elephant,1111_snp_dnn_0.1_elephant_10_n02504458_4954.png,,,0.1
vgg19,140,,bottle,elephant,1111_snp_dnn_0.1_elephant_10_n02504458_7408.png,,,0.1
vgg19,141,,knife,keyboard,1111_snp_dnn_0.1_keyboard_10_n03085013_24618.png,,,0.1
vgg19,142,,bottle,keyboard,1111_snp_dnn_0.1_keyboard_10_n04505470_1430.png,,,0.1
vgg19,143,,bottle,keyboard,1111_snp_dnn_0.1_keyboard_10_n04505470_1833.png,,,0.1
vgg19,144,,bottle,keyboard,1111_snp_dnn_0.1_keyboard_10_n04505470_2115.png,,,0.1
vgg19,145,,keyboard,keyboard,1111_snp_dnn_0.1_keyboard_10_n04505470_933.png,,,0.1
vgg19,146,,boat,knife,1111_snp_dnn_0.1_knife_10_n03041632_105081.png,,,0.1
vgg19,147,,bottle,knife,1111_snp_dnn_0.1_knife_10_n03041632_15444.png,,,0.1
vgg19,148,,bottle,knife,1111_snp_dnn_0.1_knife_10_n03041632_17338.png,,,0.1
vgg19,149,,bottle,knife,1111_snp_dnn_0.1_knife_10_n03041632_24277.png,,,0.1
vgg19,150,,boat,knife,1111_snp_dnn_0.1_knife_10_n03041632_25022.png,,,0.1
vgg19,151,,keyboard,oven,1111_snp_dnn_0.1_oven_10_n04111531_1229.png,,,0.1
vgg19,152,,boat,oven,1111_snp_dnn_0.1_oven_10_n04111531_18592.png,,,0.1
vgg19,153,,bottle,oven,1111_snp_dnn_0.1_oven_10_n04111531_4.png,,,0.1
vgg19,154,,bottle,oven,1111_snp_dnn_0.1_oven_10_n04111531_9490.png,,,0.1
vgg19,155,,boat,oven,1111_snp_dnn_0.1_oven_10_n04111531_9712.png,,,0.1
vgg19,156,,bottle,truck,1111_snp_dnn_0.1_truck_10_n03417042_10300.png,,,0.1
vgg19,157,,bottle,truck,1111_snp_dnn_0.1_truck_10_n03417042_12133.png,,,0.1
vgg19,158,,boat,truck,1111_snp_dnn_0.1_truck_10_n03417042_12486.png,,,0.1
vgg19,159,,bottle,truck,1111_snp_dnn_0.1_truck_10_n03417042_1656.png,,,0.1
vgg19,160,,bottle,truck,1111_snp_dnn_0.1_truck_10_n03796401_14381.png,,,0.1
vgg19,161,,boat,airplane,1111_snp_dnn_0.2_airplane_10_n02690373_14117.png,,,0.2
vgg19,162,,bear,airplane,1111_snp_dnn_0.2_airplane_10_n02690373_3912.png,,,0.2
vgg19,163,,bottle,airplane,1111_snp_dnn_0.2_airplane_10_n02690373_4243.png,,,0.2
vgg19,164,,boat,airplane,1111_snp_dnn_0.2_airplane_10_n02690373_6231.png,,,0.2
vgg19,165,,boat,airplane,1111_snp_dnn_0.2_airplane_10_n02690373_6853.png,,,0.2
vgg19,166,,boat,bear,1111_snp_dnn_0.2_bear_10_n02132136_1934.png,,,0.2
vgg19,167,,bear,bear,1111_snp_dnn_0.2_bear_10_n02132136_5184.png,,,0.2
vgg19,168,,boat,bear,1111_snp_dnn_0.2_bear_10_n02132136_6787.png,,,0.2
vgg19,169,,boat,bear,1111_snp_dnn_0.2_bear_10_n02133161_1498.png,,,0.2
vgg19,170,,boat,bear,1111_snp_dnn_0.2_bear_10_n02134418_4041.png,,,0.2
vgg19,171,,bear,bicycle,1111_snp_dnn_0.2_bicycle_10_n02835271_13131.png,,,0.2
vgg19,172,,boat,bicycle,1111_snp_dnn_0.2_bicycle_10_n02835271_7873.png,,,0.2
vgg19,173,,bottle,bicycle,1111_snp_dnn_0.2_bicycle_10_n03792782_1030.png,,,0.2
vgg19,174,,boat,bicycle,1111_snp_dnn_0.2_bicycle_10_n03792782_3631.png,,,0.2
vgg19,175,,bottle,bicycle,1111_snp_dnn_0.2_bicycle_10_n03792782_47774.png,,,0.2
vgg19,176,,clock,bird,1111_snp_dnn_0.2_bird_10_n01532829_22520.png,,,0.2
vgg19,177,,boat,bird,1111_snp_dnn_0.2_bird_10_n01818515_7890.png,,,0.2
vgg19,178,,bear,bird,1111_snp_dnn_0.2_bird_10_n01819313_3893.png,,,0.2
vgg19,179,,boat,bird,1111_snp_dnn_0.2_bird_10_n02007558_10725.png,,,0.2
vgg19,180,,boat,bird,1111_snp_dnn_0.2_bird_10_n02037110_8732.png,,,0.2
vgg19,181,,bear,boat,1111_snp_dnn_0.2_boat_10_n02951358_19768.png,,,0.2
vgg19,182,,boat,boat,1111_snp_dnn_0.2_boat_10_n03344393_7433.png,,,0.2
vgg19,183,,bear,boat,1111_snp_dnn_0.2_boat_10_n04612504_30742.png,,,0.2
vgg19,184,,boat,boat,1111_snp_dnn_0.2_boat_10_n04612504_7166.png,,,0.2
vgg19,185,,boat,boat,1111_snp_dnn_0.2_boat_10_n04612504_8942.png,,,0.2
vgg19,186,,bear,bottle,1111_snp_dnn_0.2_bottle_10_n02823428_825.png,,,0.2
vgg19,187,,boat,bottle,1111_snp_dnn_0.2_bottle_10_n03937543_3759.png,,,0.2
vgg19,188,,boat,bottle,1111_snp_dnn_0.2_bottle_10_n04560804_12278.png,,,0.2
vgg19,189,,boat,bottle,1111_snp_dnn_0.2_bottle_10_n04591713_595.png,,,0.2
vgg19,190,,boat,bottle,1111_snp_dnn_0.2_bottle_10_n04591713_7221.png,,,0.2
vgg19,191,,bottle,car,1111_snp_dnn_0.2_car_10_n02814533_1165.png,,,0.2
vgg19,192,,bottle,car,1111_snp_dnn_0.2_car_10_n02814533_75974.png,,,0.2
vgg19,193,,bottle,car,1111_snp_dnn_0.2_car_10_n02814533_82925.png,,,0.2
vgg19,194,,bottle,car,1111_snp_dnn_0.2_car_10_n03100240_5489.png,,,0.2
vgg19,195,,bottle,car,1111_snp_dnn_0.2_car_10_n04285008_9470.png,,,0.2
vgg19,196,,bottle,cat,1111_snp_dnn_0.2_cat_10_n02123045_2025.png,,,0.2
vgg19,197,,bear,cat,1111_snp_dnn_0.2_cat_10_n02123045_9341.png,,,0.2
vgg19,198,,boat,cat,1111_snp_dnn_0.2_cat_10_n02123159_3226.png,,,0.2
vgg19,199,,boat,cat,1111_snp_dnn_0.2_cat_10_n02123159_6505.png,,,0.2
vgg19,200,,boat,cat,1111_snp_dnn_0.2_cat_10_n02124075_20957.png,,,0.2
vgg19,201,,bottle,chair,1111_snp_dnn_0.2_chair_10_n03376595_2566.png,,,0.2
vgg19,202,,bottle,chair,1111_snp_dnn_0.2_chair_10_n03376595_4309.png,,,0.2
vgg19,203,,bottle,chair,1111_snp_dnn_0.2_chair_10_n03376595_4469.png,,,0.2
vgg19,204,,bear,chair,1111_snp_dnn_0.2_chair_10_n04099969_18182.png,,,0.2
vgg19,205,,bottle,chair,1111_snp_dnn_0.2_chair_10_n04429376_18127.png,,,0.2
vgg19,206,,clock,clock,1111_snp_dnn_0.2_clock_10_n03196217_4004.png,,,0.2
vgg19,207,,bottle,clock,1111_snp_dnn_0.2_clock_10_n03196217_4417.png,,,0.2
vgg19,208,,boat,clock,1111_snp_dnn_0.2_clock_10_n04548280_1438.png,,,0.2
vgg19,209,,bottle,clock,1111_snp_dnn_0.2_clock_10_n04548280_2518.png,,,0.2
vgg19,210,,boat,clock,1111_snp_dnn_0.2_clock_10_n04548280_8585.png,,,0.2
vgg19,211,,boat,dog,1111_snp_dnn_0.2_dog_10_n02090721_1456.png,,,0.2
vgg19,212,,boat,dog,1111_snp_dnn_0.2_dog_10_n02097130_1834.png,,,0.2
vgg19,213,,bear,dog,1111_snp_dnn_0.2_dog_10_n02099712_5781.png,,,0.2
vgg19,214,,boat,dog,1111_snp_dnn_0.2_dog_10_n02101388_2075.png,,,0.2
vgg19,215,,bottle,dog,1111_snp_dnn_0.2_dog_10_n02107142_1550.png,,,0.2
vgg19,216,,bottle,elephant,1111_snp_dnn_0.2_elephant_10_n02504013_6660.png,,,0.2
vgg19,217,,boat,elephant,1111_snp_dnn_0.2_elephant_10_n02504458_1735.png,,,0.2
vgg19,218,,boat,elephant,1111_snp_dnn_0.2_elephant_10_n02504458_1844.png,,,0.2
vgg19,219,,bear,elephant,1111_snp_dnn_0.2_elephant_10_n02504458_1998.png,,,0.2
vgg19,220,,boat,elephant,1111_snp_dnn_0.2_elephant_10_n02504458_5561.png,,,0.2
vgg19,221,,bottle,keyboard,1111_snp_dnn_0.2_keyboard_10_n04505470_1874.png,,,0.2
vgg19,222,,bottle,keyboard,1111_snp_dnn_0.2_keyboard_10_n04505470_2570.png,,,0.2
vgg19,223,,clock,keyboard,1111_snp_dnn_0.2_keyboard_10_n04505470_3947.png,,,0.2
vgg19,224,,bear,keyboard,1111_snp_dnn_0.2_keyboard_10_n04505470_4906.png,,,0.2
vgg19,225,,bottle,keyboard,1111_snp_dnn_0.2_keyboard_10_n04505470_6272.png,,,0.2
vgg19,226,,boat,knife,1111_snp_dnn_0.2_knife_10_n03041632_11285.png,,,0.2
vgg19,227,,boat,knife,1111_snp_dnn_0.2_knife_10_n03041632_32785.png,,,0.2
vgg19,228,,boat,knife,1111_snp_dnn_0.2_knife_10_n03041632_47410.png,,,0.2
vgg19,229,,bottle,knife,1111_snp_dnn_0.2_knife_10_n03041632_48071.png,,,0.2
vgg19,230,,bottle,knife,1111_snp_dnn_0.2_knife_10_n03041632_83826.png,,,0.2
vgg19,231,,bear,oven,1111_snp_dnn_0.2_oven_10_n04111531_14611.png,,,0.2
vgg19,232,,bear,oven,1111_snp_dnn_0.2_oven_10_n04111531_15649.png,,,0.2
vgg19,233,,bottle,oven,1111_snp_dnn_0.2_oven_10_n04111531_2371.png,,,0.2
vgg19,234,,bottle,oven,1111_snp_dnn_0.2_oven_10_n04111531_326.png,,,0.2
vgg19,235,,boat,oven,1111_snp_dnn_0.2_oven_10_n04111531_9844.png,,,0.2
vgg19,236,,bottle,truck,1111_snp_dnn_0.2_truck_10_n03796401_15756.png,,,0.2
vgg19,237,,boat,truck,1111_snp_dnn_0.2_truck_10_n03796401_17504.png,,,0.2
vgg19,238,,bottle,truck,1111_snp_dnn_0.2_truck_10_n03796401_19114.png,,,0.2
vgg19,239,,bottle,truck,1111_snp_dnn_0.2_truck_10_n03796401_4309.png,,,0.2
vgg19,240,,bottle,truck,1111_snp_dnn_0.2_truck_10_n04467665_11776.png,,,0.2
vgg19,241,,bear,airplane,1111_snp_dnn_0.35_airplane_10_n02690373_1071.png,,,0.35
vgg19,242,,bottle,airplane,1111_snp_dnn_0.35_airplane_10_n02690373_2024.png,,,0.35
vgg19,243,,bottle,airplane,1111_snp_dnn_0.35_airplane_10_n02690373_2070.png,,,0.35
vgg19,244,,bottle,airplane,1111_snp_dnn_0.35_airplane_10_n02690373_4728.png,,,0.35
vgg19,245,,bottle,airplane,1111_snp_dnn_0.35_airplane_10_n02690373_6999.png,,,0.35
vgg19,246,,bear,bear,1111_snp_dnn_0.35_bear_10_n02132136_3169.png,,,0.35
vgg19,247,,bottle,bear,1111_snp_dnn_0.35_bear_10_n02133161_10314.png,,,0.35
vgg19,248,,bottle,bear,1111_snp_dnn_0.35_bear_10_n02134084_10224.png,,,0.35
vgg19,249,,bear,bear,1111_snp_dnn_0.35_bear_10_n02134084_2004.png,,,0.35
vgg19,250,,elephant,bear,1111_snp_dnn_0.35_bear_10_n02134418_4895.png,,,0.35
vgg19,251,,bear,bicycle,1111_snp_dnn_0.35_bicycle_10_n02835271_15038.png,,,0.35
vgg19,252,,bottle,bicycle,1111_snp_dnn_0.35_bicycle_10_n02835271_8273.png,,,0.35
vgg19,253,,bear,bicycle,1111_snp_dnn_0.35_bicycle_10_n03792782_11597.png,,,0.35
vgg19,254,,bear,bicycle,1111_snp_dnn_0.35_bicycle_10_n03792782_17337.png,,,0.35
vgg19,255,,bear,bicycle,1111_snp_dnn_0.35_bicycle_10_n03792782_692.png,,,0.35
vgg19,256,,bear,bird,1111_snp_dnn_0.35_bird_10_n01531178_8282.png,,,0.35
vgg19,257,,bear,bird,1111_snp_dnn_0.35_bird_10_n01537544_2772.png,,,0.35
vgg19,258,,bear,bird,1111_snp_dnn_0.35_bird_10_n01860187_6891.png,,,0.35
vgg19,259,,bear,bird,1111_snp_dnn_0.35_bird_10_n02025239_22501.png,,,0.35
vgg19,260,,bottle,bird,1111_snp_dnn_0.35_bird_10_n02033041_6633.png,,,0.35
vgg19,261,,bottle,boat,1111_snp_dnn_0.35_boat_10_n02951358_31835.png,,,0.35
vgg19,262,,bear,boat,1111_snp_dnn_0.35_boat_10_n02951358_34051.png,,,0.35
vgg19,263,,bottle,boat,1111_snp_dnn_0.35_boat_10_n02951358_34441.png,,,0.35
vgg19,264,,bottle,boat,1111_snp_dnn_0.35_boat_10_n02951358_4826.png,,,0.35
vgg19,265,,bear,boat,1111_snp_dnn_0.35_boat_10_n02951358_8194.png,,,0.35
vgg19,266,,bottle,bottle,1111_snp_dnn_0.35_bottle_10_n02823428_7033.png,,,0.35
vgg19,267,,bottle,bottle,1111_snp_dnn_0.35_bottle_10_n04560804_15228.png,,,0.35
vgg19,268,,bear,bottle,1111_snp_dnn_0.35_bottle_10_n04560804_32398.png,,,0.35
vgg19,269,,bottle,bottle,1111_snp_dnn_0.35_bottle_10_n04560804_9813.png,,,0.35
vgg19,270,,bottle,bottle,1111_snp_dnn_0.35_bottle_10_n04591713_5754.png,,,0.35
vgg19,271,,bottle,car,1111_snp_dnn_0.35_car_10_n02814533_18458.png,,,0.35
vgg19,272,,bottle,car,1111_snp_dnn_0.35_car_10_n02814533_23512.png,,,0.35
vgg19,273,,bottle,car,1111_snp_dnn_0.35_car_10_n02814533_27150.png,,,0.35
vgg19,274,,bear,car,1111_snp_dnn_0.35_car_10_n03100240_6805.png,,,0.35
vgg19,275,,bottle,car,1111_snp_dnn_0.35_car_10_n03100240_6954.png,,,0.35
vgg19,276,,bear,cat,1111_snp_dnn_0.35_cat_10_n02123045_8774.png,,,0.35
vgg19,277,,bear,cat,1111_snp_dnn_0.35_cat_10_n02123394_2364.png,,,0.35
vgg19,278,,bear,cat,1111_snp_dnn_0.35_cat_10_n02123394_2690.png,,,0.35
vgg19,279,,bear,cat,1111_snp_dnn_0.35_cat_10_n02123394_2903.png,,,0.35
vgg19,280,,bear,cat,1111_snp_dnn_0.35_cat_10_n02124075_8351.png,,,0.35
vgg19,281,,bear,chair,1111_snp_dnn_0.35_chair_10_n03376595_6837.png,,,0.35
vgg19,282,,boat,chair,1111_snp_dnn_0.35_chair_10_n04099969_2267.png,,,0.35
vgg19,283,,bottle,chair,1111_snp_dnn_0.35_chair_10_n04429376_19101.png,,,0.35
vgg19,284,,bottle,chair,1111_snp_dnn_0.35_chair_10_n04429376_3620.png,,,0.35
vgg19,285,,boat,chair,1111_snp_dnn_0.35_chair_10_n04429376_8395.png,,,0.35
vgg19,286,,bottle,clock,1111_snp_dnn_0.35_clock_10_n02708093_462.png,,,0.35
vgg19,287,,boat,clock,1111_snp_dnn_0.35_clock_10_n03196217_5252.png,,,0.35
vgg19,288,,bottle,clock,1111_snp_dnn_0.35_clock_10_n03196217_8943.png,,,0.35
vgg19,289,,bear,clock,1111_snp_dnn_0.35_clock_10_n04548280_11068.png,,,0.35
vgg19,290,,bear,clock,1111_snp_dnn_0.35_clock_10_n04548280_3997.png,,,0.35
vgg19,291,,boat,dog,1111_snp_dnn_0.35_dog_10_n02088632_2814.png,,,0.35
vgg19,292,,bear,dog,1111_snp_dnn_0.35_dog_10_n02105056_328.png,,,0.35
vgg19,293,,bear,dog,1111_snp_dnn_0.35_dog_10_n02110806_16707.png,,,0.35
vgg19,294,,bear,dog,1111_snp_dnn_0.35_dog_10_n02110806_2586.png,,,0.35
vgg19,295,,bear,dog,1111_snp_dnn_0.35_dog_10_n02112018_370.png,,,0.35
vgg19,296,,bear,elephant,1111_snp_dnn_0.35_elephant_10_n02504013_10462.png,,,0.35
vgg19,297,,bear,elephant,1111_snp_dnn_0.35_elephant_10_n02504013_8385.png,,,0.35
vgg19,298,,bear,elephant,1111_snp_dnn_0.35_elephant_10_n02504458_1848.png,,,0.35
vgg19,299,,boat,elephant,1111_snp_dnn_0.35_elephant_10_n02504458_4.png,,,0.35
vgg19,300,,bear,elephant,1111_snp_dnn_0.35_elephant_10_n02504458_5176.png,,,0.35
vgg19,301,,bottle,keyboard,1111_snp_dnn_0.35_keyboard_10_n03085013_17762.png,,,0.35
vgg19,302,,bear,keyboard,1111_snp_dnn_0.35_keyboard_10_n03085013_2122.png,,,0.35
vgg19,303,,bottle,keyboard,1111_snp_dnn_0.35_keyboard_10_n03085013_24577.png,,,0.35
vgg19,304,,bottle,keyboard,1111_snp_dnn_0.35_keyboard_10_n03085013_6038.png,,,0.35
vgg19,305,,bottle,keyboard,1111_snp_dnn_0.35_keyboard_10_n03085013_6978.png,,,0.35
vgg19,306,,bottle,knife,1111_snp_dnn_0.35_knife_10_n03041632_11475.png,,,0.35
vgg19,307,,bear,knife,1111_snp_dnn_0.35_knife_10_n03041632_14224.png,,,0.35
vgg19,308,,bear,knife,1111_snp_dnn_0.35_knife_10_n03041632_21723.png,,,0.35
vgg19,309,,bear,knife,1111_snp_dnn_0.35_knife_10_n03041632_26340.png,,,0.35
vgg19,310,,bear,knife,1111_snp_dnn_0.35_knife_10_n03041632_31909.png,,,0.35
vgg19,311,,bear,oven,1111_snp_dnn_0.35_oven_10_n04111531_10011.png,,,0.35
vgg19,312,,bear,oven,1111_snp_dnn_0.35_oven_10_n04111531_1054.png,,,0.35
vgg19,313,,bear,oven,1111_snp_dnn_0.35_oven_10_n04111531_11530.png,,,0.35
vgg19,314,,bottle,oven,1111_snp_dnn_0.35_oven_10_n04111531_18645.png,,,0.35
vgg19,315,,bear,oven,1111_snp_dnn_0.35_oven_10_n04111531_7034.png,,,0.35
vgg19,316,,bottle,truck,1111_snp_dnn_0.35_truck_10_n03417042_10043.png,,,0.35
vgg19,317,,bottle,truck,1111_snp_dnn_0.35_truck_10_n03417042_14000.png,,,0.35
vgg19,318,,boat,truck,1111_snp_dnn_0.35_truck_10_n03417042_16389.png,,,0.35
vgg19,319,,bottle,truck,1111_snp_dnn_0.35_truck_10_n04467665_1077.png,,,0.35
vgg19,320,,bear,truck,1111_snp_dnn_0.35_truck_10_n04467665_50932.png,,,0.35
