subj,trial,rt,object_response,category,imagename,age,block,difficulty
43,1,1.6668,clock,clock,1111_snp_hum_0.1_clock_40_n03196217_8614.png,12.0,1,0.1
43,2,2.35,clock,clock,1111_snp_hum_0.0_clock_40_n03196217_585.png,12.0,1,0.0
43,3,1.4005,bicycle,bicycle,1111_snp_hum_0.0_bicycle_40_n03792782_14216.png,12.0,1,0.0
43,4,10.6329,keyboard,bottle,1111_snp_hum_0.2_bottle_40_n03937543_3759.png,12.0,1,0.2
43,5,2.5833,bird,bottle,1111_snp_hum_0.35_bottle_40_n04591713_5754.png,12.0,1,0.35
43,6,1.1836,bear,bear,1111_snp_hum_0.35_bear_40_n02132136_3169.png,12.0,1,0.35
43,7,2.5999,boat,knife,1111_snp_hum_0.2_knife_40_n03041632_32785.png,12.0,1,0.2
43,8,2.6334,elephant,bear,1111_snp_hum_0.2_bear_40_n02132136_5184.png,12.0,1,0.2
43,9,1.1340000000000001,oven,oven,1111_snp_hum_0.0_oven_40_n04111531_13247.png,12.0,1,0.0
43,10,1.5505,truck,truck,1111_snp_hum_0.2_truck_40_n03796401_4309.png,12.0,1,0.2
43,11,5.8329,bear,cat,1111_snp_hum_0.2_cat_40_n02123045_9341.png,12.0,1,0.2
43,12,4.6667,clock,chair,1111_snp_hum_0.35_chair_40_n04099969_2267.png,12.0,1,0.35
43,13,14.7816,cat,dog,1111_snp_hum_0.35_dog_40_n02088632_2814.png,12.0,1,0.35
43,14,15.182,bicycle,knife,1111_snp_hum_0.1_knife_40_n03041632_105081.png,12.0,1,0.1
43,15,2.6501,bear,bird,1111_snp_hum_0.35_bird_40_n01860187_6891.png,12.0,1,0.35
43,16,1.8335,knife,knife,1111_snp_hum_0.0_knife_40_n03041632_24114.png,12.0,1,0.0
43,17,1.2503,airplane,airplane,1111_snp_hum_0.1_airplane_40_n02690373_3874.png,12.0,1,0.1
43,18,1.2338,truck,clock,1111_snp_hum_0.1_clock_40_n03196217_5478.png,12.0,1,0.1
43,19,1.0002,truck,truck,1111_snp_hum_0.1_truck_40_n03417042_1656.png,12.0,1,0.1
43,20,1.7002,chair,chair,1111_snp_hum_0.0_chair_40_n04429376_10128.png,12.0,1,0.0
43,21,1.3005,car,car,1111_snp_hum_0.0_car_40_n03100240_24331.png,12.0,2,0.0
43,22,1.1336,dog,dog,1111_snp_hum_0.0_dog_40_n02105056_9209.png,12.0,2,0.0
43,23,1.1001,elephant,elephant,1111_snp_hum_0.1_elephant_40_n02504458_4954.png,12.0,2,0.1
43,24,1.0006,car,car,1111_snp_hum_0.2_car_40_n04285008_9470.png,12.0,2,0.2
43,25,2.6498,boat,boat,1111_snp_hum_0.2_boat_40_n03344393_7433.png,12.0,2,0.2
43,26,6.9661,chair,dog,1111_snp_hum_0.1_dog_40_n02106382_14862.png,12.0,2,0.1
43,27,2.2335,bird,bird,1111_snp_hum_0.0_bird_40_n01537544_15048.png,12.0,2,0.0
43,28,0.8504,elephant,elephant,1111_snp_hum_0.2_elephant_40_n02504458_1998.png,12.0,2,0.2
43,29,7.0495,clock,airplane,1111_snp_hum_0.35_airplane_40_n02690373_1071.png,12.0,2,0.35
43,30,1.3339,bicycle,bicycle,1111_snp_hum_0.35_bicycle_40_n02835271_15038.png,12.0,2,0.35
43,31,10.6655,bottle,boat,1111_snp_hum_0.35_boat_40_n02951358_34051.png,12.0,2,0.35
43,32,5.65,airplane,boat,1111_snp_hum_0.2_boat_40_n02951358_19768.png,12.0,2,0.2
43,33,2.9833,elephant,bicycle,1111_snp_hum_0.35_bicycle_40_n03792782_17337.png,12.0,2,0.35
43,34,0.8169,elephant,elephant,1111_snp_hum_0.2_elephant_40_n02504458_1735.png,12.0,2,0.2
43,35,6.8147,bear,dog,1111_snp_hum_0.35_dog_40_n02112018_370.png,12.0,2,0.35
43,36,1.8166,car,knife,1111_snp_hum_0.1_knife_40_n03041632_25022.png,12.0,2,0.1
43,37,6.5005,clock,oven,1111_snp_hum_0.1_oven_40_n04111531_18592.png,12.0,2,0.1
43,38,1.1172,chair,chair,1111_snp_hum_0.0_chair_40_n04429376_9212.png,12.0,2,0.0
43,39,6.5993,chair,bottle,1111_snp_hum_0.1_bottle_40_n04591713_6238.png,12.0,2,0.1
43,40,1.0505,car,car,1111_snp_hum_0.0_car_40_n02814533_32461.png,12.0,2,0.0
43,41,1.7335,clock,clock,1111_snp_hum_0.1_clock_40_n02708093_1431.png,12.0,3,0.1
43,42,1.1004,cat,cat,1111_snp_hum_0.0_cat_40_n02124075_14094.png,12.0,3,0.0
43,43,0.9169,keyboard,keyboard,1111_snp_hum_0.1_keyboard_40_n03085013_24618.png,12.0,3,0.1
43,44,2.2669,keyboard,keyboard,1111_snp_hum_0.35_keyboard_40_n03085013_24577.png,12.0,3,0.35
43,45,6.3667,car,bear,1111_snp_hum_0.2_bear_40_n02134418_4041.png,12.0,3,0.2
43,46,1.2669,bear,bear,1111_snp_hum_0.2_bear_40_n02132136_6787.png,12.0,3,0.2
43,47,1.2337,airplane,airplane,1111_snp_hum_0.2_airplane_40_n02690373_6853.png,12.0,3,0.2
43,48,4.8997,bicycle,cat,1111_snp_hum_0.35_cat_40_n02123045_8774.png,12.0,3,0.35
43,49,0.917,elephant,elephant,1111_snp_hum_0.1_elephant_40_n02504458_3953.png,12.0,3,0.1
43,50,0.8673,chair,chair,1111_snp_hum_0.2_chair_40_n03376595_4469.png,12.0,3,0.2
43,51,0.7838,keyboard,keyboard,1111_snp_hum_0.35_keyboard_40_n03085013_6038.png,12.0,3,0.35
43,52,0.7672,chair,chair,1111_snp_hum_0.2_chair_40_n04429376_18127.png,12.0,3,0.2
43,53,0.9504,truck,truck,1111_snp_hum_0.0_truck_40_n03417042_19905.png,12.0,3,0.0
43,54,2.2669,bird,bird,1111_snp_hum_0.35_bird_40_n01531178_8282.png,12.0,3,0.35
43,55,3.0,boat,oven,1111_snp_hum_0.35_oven_40_n04111531_7034.png,12.0,3,0.35
43,56,1.0172,airplane,airplane,1111_snp_hum_0.0_airplane_40_n02690373_2435.png,12.0,3,0.0
43,57,3.8163,knife,knife,1111_snp_hum_0.0_knife_40_n03041632_3210.png,12.0,3,0.0
43,58,1.0172,bird,bird,1111_snp_hum_0.0_bird_40_n01530575_6098.png,12.0,3,0.0
43,59,4.6336,clock,oven,1111_snp_hum_0.1_oven_40_n04111531_9712.png,12.0,3,0.1
43,60,3.0504,chair,car,1111_snp_hum_0.1_car_40_n04285008_3280.png,12.0,3,0.1
43,61,3.5501,bicycle,bottle,1111_snp_hum_0.1_bottle_40_n03983396_11337.png,12.0,4,0.1
43,62,0.9501,bicycle,bicycle,1111_snp_hum_0.1_bicycle_40_n02835271_15925.png,12.0,4,0.1
43,63,1.1004,keyboard,keyboard,1111_snp_hum_0.0_keyboard_40_n03085013_19436.png,12.0,4,0.0
43,64,0.884,truck,truck,1111_snp_hum_0.2_truck_40_n04467665_11776.png,12.0,4,0.2
43,65,0.7002,elephant,elephant,1111_snp_hum_0.0_elephant_40_n02504013_868.png,12.0,4,0.0
43,66,0.6174,cat,cat,1111_snp_hum_0.2_cat_40_n02123045_2025.png,12.0,4,0.2
43,67,0.9504,oven,oven,1111_snp_hum_0.35_oven_40_n04111531_18645.png,12.0,4,0.35
43,68,0.8174,car,car,1111_snp_hum_0.35_car_40_n03100240_6805.png,12.0,4,0.35
43,69,0.8502,bicycle,bicycle,1111_snp_hum_0.2_bicycle_40_n02835271_13131.png,12.0,4,0.2
43,70,2.0839,dog,dog,1111_snp_hum_0.2_dog_40_n02101388_2075.png,12.0,4,0.2
43,71,2.4504,keyboard,keyboard,1111_snp_hum_0.1_keyboard_40_n04505470_1833.png,12.0,4,0.1
43,72,2.3001,boat,clock,1111_snp_hum_0.35_clock_40_n03196217_5252.png,12.0,4,0.35
43,73,1.5333,boat,airplane,1111_snp_hum_0.35_airplane_40_n02690373_2024.png,12.0,4,0.35
43,74,0.9838,boat,boat,1111_snp_hum_0.2_boat_40_n04612504_7166.png,12.0,4,0.2
43,75,3.7836,bicycle,bird,1111_snp_hum_0.1_bird_40_n01843383_8077.png,12.0,4,0.1
43,76,1.6669999999999998,bear,bear,1111_snp_hum_0.0_bear_40_n02134084_5027.png,12.0,4,0.0
43,77,3.4167,dog,bottle,1111_snp_hum_0.35_bottle_40_n04560804_32398.png,12.0,4,0.35
43,78,0.8,truck,truck,1111_snp_hum_0.0_truck_40_n03796401_4495.png,12.0,4,0.0
43,79,1.2337,boat,boat,1111_snp_hum_0.0_boat_40_n02951358_32429.png,12.0,4,0.0
43,80,1.1003,cat,cat,1111_snp_hum_0.1_cat_40_n02124075_862.png,12.0,4,0.1
43,81,4.1998,bird,oven,1111_snp_hum_0.0_oven_40_n04111531_2930.png,12.0,5,0.0
43,82,1.7668,oven,bottle,1111_snp_hum_0.0_bottle_40_n04560804_13773.png,12.0,5,0.0
43,83,1.2339,clock,clock,1111_snp_hum_0.0_clock_40_n03196217_6809.png,12.0,5,0.0
43,84,0.7669,cat,cat,1111_snp_hum_0.2_cat_40_n02124075_20957.png,12.0,5,0.2
43,85,4.9334,clock,knife,1111_snp_hum_0.35_knife_40_n03041632_26340.png,12.0,5,0.35
43,86,11.3823,car,bottle,1111_snp_hum_0.2_bottle_40_n04591713_595.png,12.0,5,0.2
43,87,3.7334,oven,oven,1111_snp_hum_0.1_oven_40_n04111531_9490.png,12.0,5,0.1
43,88,1.817,bicycle,airplane,1111_snp_hum_0.35_airplane_40_n02690373_2070.png,12.0,5,0.35
43,89,1.2670000000000001,dog,dog,1111_snp_hum_0.2_dog_40_n02107142_1550.png,12.0,5,0.2
43,90,1.4505,knife,knife,1111_snp_hum_0.35_knife_40_n03041632_11475.png,12.0,5,0.35
43,91,0.8174,keyboard,keyboard,1111_snp_hum_0.35_keyboard_40_n03085013_2122.png,12.0,5,0.35
43,92,0.7834,bicycle,bicycle,1111_snp_hum_0.0_bicycle_40_n02835271_8081.png,12.0,5,0.0
43,93,1.117,knife,knife,1111_snp_hum_0.2_knife_40_n03041632_47410.png,12.0,5,0.2
43,94,3.7503,chair,bottle,1111_snp_hum_0.2_bottle_40_n04560804_12278.png,12.0,5,0.2
43,95,0.8734,keyboard,keyboard,1111_snp_hum_0.1_keyboard_40_n04505470_2115.png,12.0,5,0.1
43,96,0.5837,elephant,elephant,1111_snp_hum_0.1_elephant_40_n02504458_7408.png,12.0,5,0.1
43,97,6.0162,clock,bicycle,1111_snp_hum_0.35_bicycle_40_n02835271_8273.png,12.0,5,0.35
43,98,1.6173,boat,boat,1111_snp_hum_0.0_boat_40_n02951358_12866.png,12.0,5,0.0
43,99,0.9006,elephant,bear,1111_snp_hum_0.1_bear_40_n02134084_4612.png,12.0,5,0.1
43,100,0.8503,car,car,1111_snp_hum_0.1_car_40_n02814533_83068.png,12.0,5,0.1
43,101,2.0503,dog,dog,1111_snp_hum_0.1_dog_40_n02102318_11816.png,12.0,6,0.1
43,102,1.4502,oven,oven,1111_snp_hum_0.0_oven_40_n04111531_21973.png,12.0,6,0.0
43,103,0.767,car,car,1111_snp_hum_0.1_car_40_n04285008_7096.png,12.0,6,0.1
43,104,1.217,bird,bird,1111_snp_hum_0.0_bird_40_n01530575_4260.png,12.0,6,0.0
43,105,1.1672,dog,dog,1111_snp_hum_0.2_dog_40_n02090721_1456.png,12.0,6,0.2
43,106,17.4152,dog,airplane,1111_snp_hum_0.2_airplane_40_n02690373_3912.png,12.0,6,0.2
43,107,2.1669,bear,elephant,1111_snp_hum_0.35_elephant_40_n02504458_4.png,12.0,6,0.35
43,108,2.1001,oven,oven,1111_snp_hum_0.0_oven_40_n04111531_23215.png,12.0,6,0.0
43,109,0.9506,keyboard,keyboard,1111_snp_hum_0.2_keyboard_40_n04505470_6272.png,12.0,6,0.2
43,110,0.8505,airplane,airplane,1111_snp_hum_0.2_airplane_40_n02690373_4243.png,12.0,6,0.2
43,111,0.7838,car,car,1111_snp_hum_0.35_car_40_n02814533_18458.png,12.0,6,0.35
43,112,0.7169,bird,bird,1111_snp_hum_0.2_bird_40_n01532829_22520.png,12.0,6,0.2
43,113,1.5001,cat,bear,1111_snp_hum_0.35_bear_40_n02133161_10314.png,12.0,6,0.35
43,114,1.7502,cat,cat,1111_snp_hum_0.35_cat_40_n02124075_8351.png,12.0,6,0.35
43,115,1.2169,bear,bear,1111_snp_hum_0.35_bear_40_n02134084_10224.png,12.0,6,0.35
43,116,1.1669,chair,chair,1111_snp_hum_0.1_chair_40_n04099969_2398.png,12.0,6,0.1
43,117,1.0334,elephant,elephant,1111_snp_hum_0.1_elephant_40_n02504013_1916.png,12.0,6,0.1
43,118,0.9499,boat,boat,1111_snp_hum_0.0_boat_40_n02951358_15424.png,12.0,6,0.0
43,119,0.6234,keyboard,keyboard,1111_snp_hum_0.1_keyboard_40_n04505470_933.png,12.0,6,0.1
43,120,4.6497,chair,chair,1111_snp_hum_0.0_chair_40_n04429376_42324.png,12.0,6,0.0
43,121,0.9503,bear,bear,1111_snp_hum_0.1_bear_40_n02133161_2137.png,12.0,7,0.1
43,122,2.1331,bottle,bottle,1111_snp_hum_0.0_bottle_40_n04591713_2718.png,12.0,7,0.0
43,123,2.9334,dog,dog,1111_snp_hum_0.0_dog_40_n02100877_20916.png,12.0,7,0.0
43,124,1.5334,clock,clock,1111_snp_hum_0.35_clock_40_n02708093_462.png,12.0,7,0.35
43,125,0.8004,elephant,elephant,1111_snp_hum_0.2_elephant_40_n02504013_6660.png,12.0,7,0.2
43,126,2.2502,boat,bird,1111_snp_hum_0.35_bird_40_n02033041_6633.png,12.0,7,0.35
43,127,1.167,bear,chair,1111_snp_hum_0.2_chair_40_n03376595_4309.png,12.0,7,0.2
43,128,0.6838,truck,truck,1111_snp_hum_0.0_truck_40_n03417042_11.png,12.0,7,0.0
43,129,1.2507,clock,boat,1111_snp_hum_0.2_boat_40_n04612504_30742.png,12.0,7,0.2
43,130,2.6337,bottle,bottle,1111_snp_hum_0.0_bottle_40_n04560804_19872.png,12.0,7,0.0
43,131,0.8675,car,car,1111_snp_hum_0.2_car_40_n02814533_82925.png,12.0,7,0.2
43,132,1.7506,bear,bird,1111_snp_hum_0.35_bird_40_n02025239_22501.png,12.0,7,0.35
43,133,1.0172,boat,boat,1111_snp_hum_0.1_boat_40_n02951358_14612.png,12.0,7,0.1
43,134,3.75,chair,knife,1111_snp_hum_0.35_knife_40_n03041632_31909.png,12.0,7,0.35
43,135,1.0671,boat,boat,1111_snp_hum_0.35_boat_40_n02951358_31835.png,12.0,7,0.35
43,136,2.3333,clock,truck,1111_snp_hum_0.1_truck_40_n03417042_12486.png,12.0,7,0.1
43,137,4.4168,clock,cat,1111_snp_hum_0.2_cat_40_n02123159_6505.png,12.0,7,0.2
43,138,1.1673,airplane,airplane,1111_snp_hum_0.1_airplane_40_n02690373_1277.png,12.0,7,0.1
43,139,0.7339,keyboard,keyboard,1111_snp_hum_0.0_keyboard_40_n03085013_1483.png,12.0,7,0.0
43,140,0.9006,bicycle,bicycle,1111_snp_hum_0.1_bicycle_40_n03792782_3467.png,12.0,7,0.1
43,141,1.0005,car,truck,1111_snp_hum_0.1_truck_40_n03796401_14381.png,12.0,8,0.1
43,142,0.9671,clock,clock,1111_snp_hum_0.1_clock_40_n03196217_3943.png,12.0,8,0.1
43,143,0.8003,elephant,elephant,1111_snp_hum_0.0_elephant_40_n02504458_3140.png,12.0,8,0.0
43,144,0.9168,cat,cat,1111_snp_hum_0.35_cat_40_n02123394_2690.png,12.0,8,0.35
43,145,2.0169,knife,knife,1111_snp_hum_0.0_knife_40_n03041632_4808.png,12.0,8,0.0
43,146,1.367,bear,chair,1111_snp_hum_0.35_chair_40_n03376595_6837.png,12.0,8,0.35
43,147,0.7838,truck,truck,1111_snp_hum_0.0_truck_40_n03417042_28078.png,12.0,8,0.0
43,148,0.8838,truck,truck,1111_snp_hum_0.2_truck_40_n03796401_17504.png,12.0,8,0.2
43,149,2.3338,truck,oven,1111_snp_hum_0.2_oven_40_n04111531_326.png,12.0,8,0.2
43,150,0.9674,clock,clock,1111_snp_hum_0.2_clock_40_n04548280_2518.png,12.0,8,0.2
43,151,0.9004,bird,bird,1111_snp_hum_0.1_bird_40_n02027492_2004.png,12.0,8,0.1
43,152,0.7171,bicycle,bicycle,1111_snp_hum_0.2_bicycle_40_n02835271_7873.png,12.0,8,0.2
43,153,0.9336,bicycle,bicycle,1111_snp_hum_0.1_bicycle_40_n03792782_33855.png,12.0,8,0.1
43,154,5.4834,clock,clock,1111_snp_hum_0.35_clock_40_n04548280_3997.png,12.0,8,0.35
43,155,0.8671,car,car,1111_snp_hum_0.35_car_40_n02814533_23512.png,12.0,8,0.35
43,156,4.6333,clock,bear,1111_snp_hum_0.35_bear_40_n02134418_4895.png,12.0,8,0.35
43,157,0.7838,chair,chair,1111_snp_hum_0.2_chair_40_n04099969_18182.png,12.0,8,0.2
43,158,0.7004,cat,cat,1111_snp_hum_0.1_cat_40_n02124075_3533.png,12.0,8,0.1
43,159,1.5339,dog,dog,1111_snp_hum_0.0_dog_40_n02098105_1796.png,12.0,8,0.0
43,160,0.9670000000000001,airplane,airplane,1111_snp_hum_0.0_airplane_40_n02690373_19152.png,12.0,8,0.0
43,161,0.8172,cat,cat,1111_snp_hum_0.1_cat_40_n02124075_9716.png,12.0,9,0.1
43,162,0.6507,elephant,elephant,1111_snp_hum_0.0_elephant_40_n02504013_19694.png,12.0,9,0.0
43,163,2.2669,knife,knife,1111_snp_hum_0.1_knife_40_n03041632_15444.png,12.0,9,0.1
43,164,0.6671,keyboard,keyboard,1111_snp_hum_0.0_keyboard_40_n03085013_24455.png,12.0,9,0.0
43,165,3.5001,clock,clock,1111_snp_hum_0.2_clock_40_n04548280_8585.png,12.0,9,0.2
43,166,0.9169,cat,dog,1111_snp_hum_0.35_dog_40_n02105056_328.png,12.0,9,0.35
43,167,1.1338,boat,boat,1111_snp_hum_0.1_boat_40_n02951358_2853.png,12.0,9,0.1
43,168,0.8669,oven,oven,1111_snp_hum_0.0_oven_40_n04111531_10306.png,12.0,9,0.0
43,169,0.7005,bear,bear,1111_snp_hum_0.1_bear_40_n02134084_6343.png,12.0,9,0.1
43,170,0.8669,keyboard,keyboard,1111_snp_hum_0.2_keyboard_40_n04505470_4906.png,12.0,9,0.2
43,171,1.784,boat,boat,1111_snp_hum_0.35_boat_40_n02951358_34441.png,12.0,9,0.35
43,172,1.5506,elephant,elephant,1111_snp_hum_0.35_elephant_40_n02504458_1848.png,12.0,9,0.35
43,173,4.1998,clock,clock,1111_snp_hum_0.35_clock_40_n04548280_11068.png,12.0,9,0.35
43,174,0.8502,bird,bird,1111_snp_hum_0.2_bird_40_n02037110_8732.png,12.0,9,0.2
43,175,2.0669999999999997,bear,truck,1111_snp_hum_0.35_truck_40_n03417042_14000.png,12.0,9,0.35
43,176,1.1166,airplane,airplane,1111_snp_hum_0.2_airplane_40_n02690373_14117.png,12.0,9,0.2
43,177,1.1672,bear,bear,1111_snp_hum_0.2_bear_40_n02133161_1498.png,12.0,9,0.2
43,178,2.0833,bottle,bottle,1111_snp_hum_0.0_bottle_40_n04591713_2024.png,12.0,9,0.0
43,179,1.2504,bird,bird,1111_snp_hum_0.1_bird_40_n02009229_5962.png,12.0,9,0.1
43,180,1.1168,dog,dog,1111_snp_hum_0.0_dog_40_n02096437_6439.png,12.0,9,0.0
43,181,1.4338,bird,bird,1111_snp_hum_0.1_bird_40_n02007558_45529.png,12.0,10,0.1
43,182,0.9339,clock,clock,1111_snp_hum_0.0_clock_40_n04548280_711.png,12.0,10,0.0
43,183,0.7506,boat,boat,1111_snp_hum_0.0_boat_40_n02951358_5718.png,12.0,10,0.0
43,184,0.9004,elephant,elephant,1111_snp_hum_0.2_elephant_40_n02504458_1844.png,12.0,10,0.2
43,185,1.1171,dog,cat,1111_snp_hum_0.2_cat_40_n02123159_3226.png,12.0,10,0.2
43,186,0.8176,car,car,1111_snp_hum_0.35_car_40_n03100240_6954.png,12.0,10,0.35
43,187,1.9169999999999998,bicycle,bottle,1111_snp_hum_0.2_bottle_40_n04591713_7221.png,12.0,10,0.2
43,188,1.3004,boat,knife,1111_snp_hum_0.1_knife_40_n03041632_24277.png,12.0,10,0.1
43,189,4.9667,bicycle,chair,1111_snp_hum_0.35_chair_40_n04429376_19101.png,12.0,10,0.35
43,190,5.3663,knife,keyboard,1111_snp_hum_0.1_keyboard_40_n04505470_1430.png,12.0,10,0.1
43,191,0.9836,boat,truck,1111_snp_hum_0.35_truck_40_n04467665_50932.png,12.0,10,0.35
43,192,1.7173,bird,bird,1111_snp_hum_0.35_bird_40_n01537544_2772.png,12.0,10,0.35
43,193,0.9504,truck,truck,1111_snp_hum_0.0_truck_40_n03417042_23440.png,12.0,10,0.0
43,194,0.8004,boat,boat,1111_snp_hum_0.2_boat_40_n04612504_8942.png,12.0,10,0.2
43,195,0.8506,clock,clock,1111_snp_hum_0.2_clock_40_n03196217_4417.png,12.0,10,0.2
43,196,0.7172,keyboard,keyboard,1111_snp_hum_0.0_keyboard_40_n03085013_25181.png,12.0,10,0.0
43,197,1.6671,clock,chair,1111_snp_hum_0.35_chair_40_n04429376_3620.png,12.0,10,0.35
43,198,0.7667,dog,dog,1111_snp_hum_0.1_dog_40_n02108000_324.png,12.0,10,0.1
43,199,0.7173,car,car,1111_snp_hum_0.0_car_40_n04285008_2789.png,12.0,10,0.0
43,200,1.0339,bicycle,bicycle,1111_snp_hum_0.1_bicycle_40_n03792782_23560.png,12.0,10,0.1
46,1,1.1836,truck,truck,1111_snp_hum_0.1_truck_40_n03417042_1656.png,11.0,1,0.1
46,2,1.0501,bicycle,bicycle,1111_snp_hum_0.0_bicycle_40_n03792782_14216.png,11.0,1,0.0
46,3,14.1487,oven,clock,1111_snp_hum_0.1_clock_40_n03196217_5478.png,11.0,1,0.1
46,4,1.1168,bird,bear,1111_snp_hum_0.2_bear_40_n02132136_5184.png,11.0,1,0.2
46,5,0.65,bear,bear,1111_snp_hum_0.35_bear_40_n02132136_3169.png,11.0,1,0.35
46,6,1.8833,clock,clock,1111_snp_hum_0.0_clock_40_n03196217_585.png,11.0,1,0.0
46,7,1.7337,oven,oven,1111_snp_hum_0.0_oven_40_n04111531_13247.png,11.0,1,0.0
46,8,0.7171,airplane,airplane,1111_snp_hum_0.1_airplane_40_n02690373_3874.png,11.0,1,0.1
46,9,11.8158,knife,bottle,1111_snp_hum_0.2_bottle_40_n03937543_3759.png,11.0,1,0.2
46,10,1.6504,bear,bottle,1111_snp_hum_0.35_bottle_40_n04591713_5754.png,11.0,1,0.35
46,11,2.4666,bird,bird,1111_snp_hum_0.35_bird_40_n01860187_6891.png,11.0,1,0.35
46,12,5.6831,bicycle,cat,1111_snp_hum_0.2_cat_40_n02123045_9341.png,11.0,1,0.2
46,13,1.2173,truck,truck,1111_snp_hum_0.2_truck_40_n03796401_4309.png,11.0,1,0.2
46,14,1.8502,chair,chair,1111_snp_hum_0.0_chair_40_n04429376_10128.png,11.0,1,0.0
46,15,1.5171,knife,knife,1111_snp_hum_0.2_knife_40_n03041632_32785.png,11.0,1,0.2
46,16,3.2001,keyboard,chair,1111_snp_hum_0.35_chair_40_n04099969_2267.png,11.0,1,0.35
46,17,5.0999,chair,dog,1111_snp_hum_0.35_dog_40_n02088632_2814.png,11.0,1,0.35
46,18,1.2007,knife,knife,1111_snp_hum_0.0_knife_40_n03041632_24114.png,11.0,1,0.0
46,19,0.7504,knife,knife,1111_snp_hum_0.1_knife_40_n03041632_105081.png,11.0,1,0.1
46,20,0.5837,clock,clock,1111_snp_hum_0.1_clock_40_n03196217_8614.png,11.0,1,0.1
46,21,1.0173,car,car,1111_snp_hum_0.0_car_40_n03100240_24331.png,11.0,2,0.0
46,22,2.4499,oven,oven,1111_snp_hum_0.1_oven_40_n04111531_18592.png,11.0,2,0.1
46,23,0.3339,car,car,1111_snp_hum_0.0_car_40_n02814533_32461.png,11.0,2,0.0
46,24,0.3337,elephant,elephant,1111_snp_hum_0.2_elephant_40_n02504458_1735.png,11.0,2,0.2
46,25,0.5838,car,knife,1111_snp_hum_0.1_knife_40_n03041632_25022.png,11.0,2,0.1
46,26,0.3836,elephant,elephant,1111_snp_hum_0.1_elephant_40_n02504458_4954.png,11.0,2,0.1
46,27,4.8666,knife,bottle,1111_snp_hum_0.1_bottle_40_n04591713_6238.png,11.0,2,0.1
46,28,1.5669,car,boat,1111_snp_hum_0.2_boat_40_n03344393_7433.png,11.0,2,0.2
46,29,1.3338,car,airplane,1111_snp_hum_0.35_airplane_40_n02690373_1071.png,11.0,2,0.35
46,30,0.6336,bicycle,bicycle,1111_snp_hum_0.35_bicycle_40_n03792782_17337.png,11.0,2,0.35
46,31,0.6839,bicycle,bicycle,1111_snp_hum_0.35_bicycle_40_n02835271_15038.png,11.0,2,0.35
46,32,4.7669999999999995,boat,dog,1111_snp_hum_0.35_dog_40_n02112018_370.png,11.0,2,0.35
46,33,0.4835,elephant,elephant,1111_snp_hum_0.2_elephant_40_n02504458_1998.png,11.0,2,0.2
46,34,3.7996,dog,dog,1111_snp_hum_0.1_dog_40_n02106382_14862.png,11.0,2,0.1
46,35,6.0998,bicycle,boat,1111_snp_hum_0.2_boat_40_n02951358_19768.png,11.0,2,0.2
46,36,1.1505,boat,boat,1111_snp_hum_0.35_boat_40_n02951358_34051.png,11.0,2,0.35
46,37,0.7339,car,car,1111_snp_hum_0.2_car_40_n04285008_9470.png,11.0,2,0.2
46,38,1.0506,chair,chair,1111_snp_hum_0.0_chair_40_n04429376_9212.png,11.0,2,0.0
46,39,0.6177,dog,dog,1111_snp_hum_0.0_dog_40_n02105056_9209.png,11.0,2,0.0
46,40,1.4336,bird,bird,1111_snp_hum_0.0_bird_40_n01537544_15048.png,11.0,2,0.0
46,41,3.1669,bear,oven,1111_snp_hum_0.1_oven_40_n04111531_9712.png,11.0,3,0.1
46,42,1.85,oven,keyboard,1111_snp_hum_0.1_keyboard_40_n03085013_24618.png,11.0,3,0.1
46,43,0.7668,car,car,1111_snp_hum_0.1_car_40_n04285008_3280.png,11.0,3,0.1
46,44,1.2006,truck,keyboard,1111_snp_hum_0.35_keyboard_40_n03085013_24577.png,11.0,3,0.35
46,45,0.6003,chair,chair,1111_snp_hum_0.2_chair_40_n03376595_4469.png,11.0,3,0.2
46,46,6.3999,keyboard,knife,1111_snp_hum_0.0_knife_40_n03041632_3210.png,11.0,3,0.0
46,47,1.4338,elephant,bear,1111_snp_hum_0.2_bear_40_n02132136_6787.png,11.0,3,0.2
46,48,0.7838,keyboard,keyboard,1111_snp_hum_0.35_keyboard_40_n03085013_6038.png,11.0,3,0.35
46,49,3.6835,knife,airplane,1111_snp_hum_0.2_airplane_40_n02690373_6853.png,11.0,3,0.2
46,50,3.6664,cat,bird,1111_snp_hum_0.0_bird_40_n01530575_6098.png,11.0,3,0.0
46,51,0.4505,elephant,elephant,1111_snp_hum_0.1_elephant_40_n02504458_3953.png,11.0,3,0.1
46,52,0.6505,bird,bird,1111_snp_hum_0.35_bird_40_n01531178_8282.png,11.0,3,0.35
46,53,1.6835,bear,bear,1111_snp_hum_0.2_bear_40_n02134418_4041.png,11.0,3,0.2
46,54,5.0331,keyboard,cat,1111_snp_hum_0.35_cat_40_n02123045_8774.png,11.0,3,0.35
46,55,7.8558,chair,oven,1111_snp_hum_0.35_oven_40_n04111531_7034.png,11.0,3,0.35
46,56,0.8005,chair,chair,1111_snp_hum_0.2_chair_40_n04429376_18127.png,11.0,3,0.2
46,57,0.7505,cat,cat,1111_snp_hum_0.0_cat_40_n02124075_14094.png,11.0,3,0.0
46,58,0.5173,airplane,airplane,1111_snp_hum_0.0_airplane_40_n02690373_2435.png,11.0,3,0.0
46,59,0.7837,clock,clock,1111_snp_hum_0.1_clock_40_n02708093_1431.png,11.0,3,0.1
46,60,0.534,truck,truck,1111_snp_hum_0.0_truck_40_n03417042_19905.png,11.0,3,0.0
46,61,0.6166,bicycle,bicycle,1111_snp_hum_0.1_bicycle_40_n02835271_15925.png,11.0,4,0.1
46,62,1.8006,car,bottle,1111_snp_hum_0.1_bottle_40_n03983396_11337.png,11.0,4,0.1
46,63,1.2167,bird,bird,1111_snp_hum_0.1_bird_40_n01843383_8077.png,11.0,4,0.1
46,64,1.067,car,car,1111_snp_hum_0.35_car_40_n03100240_6805.png,11.0,4,0.35
46,65,1.3338,car,airplane,1111_snp_hum_0.35_airplane_40_n02690373_2024.png,11.0,4,0.35
46,66,0.3345,dog,dog,1111_snp_hum_0.2_dog_40_n02101388_2075.png,11.0,4,0.2
46,67,0.4338,elephant,elephant,1111_snp_hum_0.0_elephant_40_n02504013_868.png,11.0,4,0.0
46,68,4.6832,boat,clock,1111_snp_hum_0.35_clock_40_n03196217_5252.png,11.0,4,0.35
46,69,0.5004,cat,cat,1111_snp_hum_0.2_cat_40_n02123045_2025.png,11.0,4,0.2
46,70,0.8502,car,truck,1111_snp_hum_0.2_truck_40_n04467665_11776.png,11.0,4,0.2
46,71,1.2337,boat,boat,1111_snp_hum_0.0_boat_40_n02951358_32429.png,11.0,4,0.0
46,72,0.8673,boat,boat,1111_snp_hum_0.2_boat_40_n04612504_7166.png,11.0,4,0.2
46,73,2.6834,elephant,bottle,1111_snp_hum_0.35_bottle_40_n04560804_32398.png,11.0,4,0.35
46,74,0.7172,bear,bear,1111_snp_hum_0.0_bear_40_n02134084_5027.png,11.0,4,0.0
46,75,1.0337,bicycle,bicycle,1111_snp_hum_0.2_bicycle_40_n02835271_13131.png,11.0,4,0.2
46,76,0.9672,car,keyboard,1111_snp_hum_0.1_keyboard_40_n04505470_1833.png,11.0,4,0.1
46,77,0.7006,oven,oven,1111_snp_hum_0.35_oven_40_n04111531_18645.png,11.0,4,0.35
46,78,1.3669,truck,truck,1111_snp_hum_0.0_truck_40_n03796401_4495.png,11.0,4,0.0
46,79,0.6668,cat,cat,1111_snp_hum_0.1_cat_40_n02124075_862.png,11.0,4,0.1
46,80,3.2168,keyboard,keyboard,1111_snp_hum_0.0_keyboard_40_n03085013_19436.png,11.0,4,0.0
46,81,0.7337,boat,boat,1111_snp_hum_0.0_boat_40_n02951358_12866.png,11.0,5,0.0
46,82,0.7004,keyboard,keyboard,1111_snp_hum_0.1_keyboard_40_n04505470_2115.png,11.0,5,0.1
46,83,1.3832,car,clock,1111_snp_hum_0.0_clock_40_n03196217_6809.png,11.0,5,0.0
46,84,1.5168,chair,knife,1111_snp_hum_0.35_knife_40_n03041632_11475.png,11.0,5,0.35
46,85,2.4334,car,airplane,1111_snp_hum_0.35_airplane_40_n02690373_2070.png,11.0,5,0.35
46,86,10.1825,bird,oven,1111_snp_hum_0.0_oven_40_n04111531_2930.png,11.0,5,0.0
46,87,1.7004,oven,bottle,1111_snp_hum_0.0_bottle_40_n04560804_13773.png,11.0,5,0.0
46,88,0.7507,knife,knife,1111_snp_hum_0.2_knife_40_n03041632_47410.png,11.0,5,0.2
46,89,3.4498,car,bottle,1111_snp_hum_0.2_bottle_40_n04591713_595.png,11.0,5,0.2
46,90,0.534,cat,cat,1111_snp_hum_0.2_cat_40_n02124075_20957.png,11.0,5,0.2
46,91,0.6333,dog,dog,1111_snp_hum_0.2_dog_40_n02107142_1550.png,11.0,5,0.2
46,92,9.2,bottle,bottle,1111_snp_hum_0.2_bottle_40_n04560804_12278.png,11.0,5,0.2
46,93,1.1504,chair,knife,1111_snp_hum_0.35_knife_40_n03041632_26340.png,11.0,5,0.35
46,94,2.267,clock,bicycle,1111_snp_hum_0.35_bicycle_40_n02835271_8273.png,11.0,5,0.35
46,95,0.9336,keyboard,keyboard,1111_snp_hum_0.35_keyboard_40_n03085013_2122.png,11.0,5,0.35
46,96,0.4668,bear,bear,1111_snp_hum_0.1_bear_40_n02134084_4612.png,11.0,5,0.1
46,97,0.4006,car,car,1111_snp_hum_0.1_car_40_n02814533_83068.png,11.0,5,0.1
46,98,0.7338,bicycle,bicycle,1111_snp_hum_0.0_bicycle_40_n02835271_8081.png,11.0,5,0.0
46,99,0.3174,elephant,elephant,1111_snp_hum_0.1_elephant_40_n02504458_7408.png,11.0,5,0.1
46,100,1.9169,chair,oven,1111_snp_hum_0.1_oven_40_n04111531_9490.png,11.0,5,0.1
46,101,0.3670000000000001,keyboard,keyboard,1111_snp_hum_0.1_keyboard_40_n04505470_933.png,11.0,6,0.1
46,102,0.2504,elephant,elephant,1111_snp_hum_0.1_elephant_40_n02504013_1916.png,11.0,6,0.1
46,103,0.7668,cat,dog,1111_snp_hum_0.1_dog_40_n02102318_11816.png,11.0,6,0.1
46,104,0.7004,bear,bear,1111_snp_hum_0.35_bear_40_n02134084_10224.png,11.0,6,0.35
46,105,0.7502,airplane,airplane,1111_snp_hum_0.2_airplane_40_n02690373_3912.png,11.0,6,0.2
46,106,1.1999,keyboard,keyboard,1111_snp_hum_0.2_keyboard_40_n04505470_6272.png,11.0,6,0.2
46,107,0.5837,chair,chair,1111_snp_hum_0.1_chair_40_n04099969_2398.png,11.0,6,0.1
46,108,0.5496,elephant,elephant,1111_snp_hum_0.35_elephant_40_n02504458_4.png,11.0,6,0.35
46,109,2.4168,dog,dog,1111_snp_hum_0.2_dog_40_n02090721_1456.png,11.0,6,0.2
46,110,0.9507,bird,bird,1111_snp_hum_0.0_bird_40_n01530575_4260.png,11.0,6,0.0
46,111,0.4837,car,car,1111_snp_hum_0.1_car_40_n04285008_7096.png,11.0,6,0.1
46,112,1.2004,oven,oven,1111_snp_hum_0.0_oven_40_n04111531_21973.png,11.0,6,0.0
46,113,0.4004,airplane,airplane,1111_snp_hum_0.2_airplane_40_n02690373_4243.png,11.0,6,0.2
46,114,6.0161,clock,cat,1111_snp_hum_0.35_cat_40_n02124075_8351.png,11.0,6,0.35
46,115,0.3668,car,car,1111_snp_hum_0.35_car_40_n02814533_18458.png,11.0,6,0.35
46,116,1.9839,car,bear,1111_snp_hum_0.35_bear_40_n02133161_10314.png,11.0,6,0.35
46,117,0.8669,bird,bird,1111_snp_hum_0.2_bird_40_n01532829_22520.png,11.0,6,0.2
46,118,0.9506,chair,chair,1111_snp_hum_0.0_chair_40_n04429376_42324.png,11.0,6,0.0
46,119,0.8337,oven,oven,1111_snp_hum_0.0_oven_40_n04111531_23215.png,11.0,6,0.0
46,120,0.5337,boat,boat,1111_snp_hum_0.0_boat_40_n02951358_15424.png,11.0,6,0.0
46,121,0.3505,truck,truck,1111_snp_hum_0.0_truck_40_n03417042_11.png,11.0,7,0.0
46,122,0.2505,bicycle,bicycle,1111_snp_hum_0.1_bicycle_40_n03792782_3467.png,11.0,7,0.1
46,123,0.6168,bottle,bottle,1111_snp_hum_0.0_bottle_40_n04591713_2718.png,11.0,7,0.0
46,124,1.7832,car,cat,1111_snp_hum_0.2_cat_40_n02123159_6505.png,11.0,7,0.2
46,125,1.3836,boat,boat,1111_snp_hum_0.35_boat_40_n02951358_31835.png,11.0,7,0.35
46,126,0.2504,elephant,elephant,1111_snp_hum_0.2_elephant_40_n02504013_6660.png,11.0,7,0.2
46,127,0.9002,dog,dog,1111_snp_hum_0.0_dog_40_n02100877_20916.png,11.0,7,0.0
46,128,1.4837,cat,knife,1111_snp_hum_0.35_knife_40_n03041632_31909.png,11.0,7,0.35
46,129,1.567,car,clock,1111_snp_hum_0.35_clock_40_n02708093_462.png,11.0,7,0.35
46,130,0.467,keyboard,keyboard,1111_snp_hum_0.0_keyboard_40_n03085013_1483.png,11.0,7,0.0
46,131,0.7507,bird,bird,1111_snp_hum_0.35_bird_40_n02033041_6633.png,11.0,7,0.35
46,132,0.3837,chair,chair,1111_snp_hum_0.2_chair_40_n03376595_4309.png,11.0,7,0.2
46,133,1.4001,bear,bird,1111_snp_hum_0.35_bird_40_n02025239_22501.png,11.0,7,0.35
46,134,0.6169,bear,bear,1111_snp_hum_0.1_bear_40_n02133161_2137.png,11.0,7,0.1
46,135,0.5498,car,car,1111_snp_hum_0.2_car_40_n02814533_82925.png,11.0,7,0.2
46,136,6.6993,oven,truck,1111_snp_hum_0.1_truck_40_n03417042_12486.png,11.0,7,0.1
46,137,1.1506,boat,boat,1111_snp_hum_0.2_boat_40_n04612504_30742.png,11.0,7,0.2
46,138,1.4672,boat,boat,1111_snp_hum_0.1_boat_40_n02951358_14612.png,11.0,7,0.1
46,139,0.3836,airplane,airplane,1111_snp_hum_0.1_airplane_40_n02690373_1277.png,11.0,7,0.1
46,140,0.7502,bottle,bottle,1111_snp_hum_0.0_bottle_40_n04560804_19872.png,11.0,7,0.0
46,141,2.4672,knife,knife,1111_snp_hum_0.0_knife_40_n03041632_4808.png,11.0,8,0.0
46,142,0.534,dog,dog,1111_snp_hum_0.0_dog_40_n02098105_1796.png,11.0,8,0.0
46,143,0.3837,bird,bird,1111_snp_hum_0.1_bird_40_n02027492_2004.png,11.0,8,0.1
46,144,2.2335,bird,bear,1111_snp_hum_0.35_bear_40_n02134418_4895.png,11.0,8,0.35
46,145,1.6836,clock,clock,1111_snp_hum_0.35_clock_40_n04548280_3997.png,11.0,8,0.35
46,146,3.2669,bear,chair,1111_snp_hum_0.35_chair_40_n03376595_6837.png,11.0,8,0.35
46,147,0.667,truck,truck,1111_snp_hum_0.0_truck_40_n03417042_28078.png,11.0,8,0.0
46,148,1.0170000000000001,oven,oven,1111_snp_hum_0.2_oven_40_n04111531_326.png,11.0,8,0.2
46,149,2.5502,oven,clock,1111_snp_hum_0.2_clock_40_n04548280_2518.png,11.0,8,0.2
46,150,0.5672,bicycle,bicycle,1111_snp_hum_0.2_bicycle_40_n02835271_7873.png,11.0,8,0.2
46,151,0.5505,chair,chair,1111_snp_hum_0.2_chair_40_n04099969_18182.png,11.0,8,0.2
46,152,1.0499,truck,truck,1111_snp_hum_0.2_truck_40_n03796401_17504.png,11.0,8,0.2
46,153,0.5837,elephant,elephant,1111_snp_hum_0.0_elephant_40_n02504458_3140.png,11.0,8,0.0
46,154,1.6001,bird,cat,1111_snp_hum_0.35_cat_40_n02123394_2690.png,11.0,8,0.35
46,155,0.6501,car,car,1111_snp_hum_0.35_car_40_n02814533_23512.png,11.0,8,0.35
46,156,0.6336,airplane,airplane,1111_snp_hum_0.0_airplane_40_n02690373_19152.png,11.0,8,0.0
46,157,0.6004,cat,cat,1111_snp_hum_0.1_cat_40_n02124075_3533.png,11.0,8,0.1
46,158,0.7007,bicycle,bicycle,1111_snp_hum_0.1_bicycle_40_n03792782_33855.png,11.0,8,0.1
46,159,1.1569,clock,clock,1111_snp_hum_0.1_clock_40_n03196217_3943.png,11.0,8,0.1
46,160,0.5836,truck,truck,1111_snp_hum_0.1_truck_40_n03796401_14381.png,11.0,8,0.1
46,161,0.5339,cat,cat,1111_snp_hum_0.0_cat_40_n02123045_964.png,11.0,11,0.0
46,162,0.5668,airplane,airplane,1111_snp_hum_0.1_airplane_40_n02690373_5870.png,11.0,11,0.1
46,163,0.7340000000000001,knife,knife,1111_snp_hum_0.1_knife_40_n03041632_17338.png,11.0,11,0.1
46,164,4.2501,bird,knife,1111_snp_hum_0.2_knife_40_n03041632_83826.png,11.0,11,0.2
46,165,3.5671,chair,boat,1111_snp_hum_0.1_boat_40_n04273569_13091.png,11.0,11,0.1
46,166,0.5168,cat,cat,1111_snp_hum_0.35_cat_40_n02123394_2903.png,11.0,11,0.35
46,167,2.0505,car,bicycle,1111_snp_hum_0.2_bicycle_40_n03792782_1030.png,11.0,11,0.2
46,168,1.4169999999999998,car,oven,1111_snp_hum_0.2_oven_40_n04111531_9844.png,11.0,11,0.2
46,169,0.7168,airplane,airplane,1111_snp_hum_0.0_airplane_40_n02690373_3993.png,11.0,11,0.0
46,170,0.7503,airplane,airplane,1111_snp_hum_0.35_airplane_40_n02690373_4728.png,11.0,11,0.35
46,171,2.2336,bottle,bottle,1111_snp_hum_0.1_bottle_40_n03983396_4843.png,11.0,11,0.1
46,172,0.7668,bottle,bottle,1111_snp_hum_0.0_bottle_40_n03937543_2357.png,11.0,11,0.0
46,173,1.0169,dog,dog,1111_snp_hum_0.2_dog_40_n02097130_1834.png,11.0,11,0.2
46,174,3.9819,bear,oven,1111_snp_hum_0.2_oven_40_n04111531_14611.png,11.0,11,0.2
46,175,0.7838,bear,bear,1111_snp_hum_0.35_bear_40_n02134084_2004.png,11.0,11,0.35
46,176,1.2838,car,truck,1111_snp_hum_0.35_truck_40_n03417042_16389.png,11.0,11,0.35
46,177,2.0166,bear,dog,1111_snp_hum_0.35_dog_40_n02110806_16707.png,11.0,11,0.35
46,178,0.4673,bear,bear,1111_snp_hum_0.0_bear_40_n02134084_19407.png,11.0,11,0.0
46,179,0.4005,bicycle,bicycle,1111_snp_hum_0.0_bicycle_40_n02835271_276.png,11.0,11,0.0
46,180,1.1501,truck,truck,1111_snp_hum_0.1_truck_40_n03417042_12133.png,11.0,11,0.1
46,181,0.4838,car,car,1111_snp_hum_0.0_car_40_n04285008_88.png,11.0,12,0.0
46,182,0.3338,bear,bear,1111_snp_hum_0.0_bear_40_n02134418_832.png,11.0,12,0.0
46,183,0.4341,cat,cat,1111_snp_hum_0.0_cat_40_n02123159_3330.png,11.0,12,0.0
46,184,0.8003,chair,chair,1111_snp_hum_0.1_chair_40_n02791124_141.png,11.0,12,0.1
46,185,3.6002,bird,oven,1111_snp_hum_0.35_oven_40_n04111531_1054.png,11.0,12,0.35
46,186,1.2338,cat,knife,1111_snp_hum_0.35_knife_40_n03041632_14224.png,11.0,12,0.35
46,187,0.4001,chair,chair,1111_snp_hum_0.0_chair_40_n04099969_20900.png,11.0,12,0.0
46,188,1.9835,cat,bicycle,1111_snp_hum_0.35_bicycle_40_n03792782_11597.png,11.0,12,0.35
46,189,0.3502,airplane,airplane,1111_snp_hum_0.0_airplane_40_n02690373_18693.png,11.0,12,0.0
46,190,2.4501,oven,oven,1111_snp_hum_0.1_oven_40_n04111531_1229.png,11.0,12,0.1
46,191,0.8667,elephant,elephant,1111_snp_hum_0.2_elephant_40_n02504458_5561.png,11.0,12,0.2
46,192,0.41700000000000004,chair,chair,1111_snp_hum_0.35_chair_40_n04429376_8395.png,11.0,12,0.35
46,193,1.7502,bird,bird,1111_snp_hum_0.2_bird_40_n02007558_10725.png,11.0,12,0.2
46,194,0.5005,car,car,1111_snp_hum_0.2_car_40_n02814533_75974.png,11.0,12,0.2
46,195,3.4999,keyboard,keyboard,1111_snp_hum_0.2_keyboard_40_n04505470_1874.png,11.0,12,0.2
46,196,3.0837,bottle,bottle,1111_snp_hum_0.35_bottle_40_n04560804_15228.png,11.0,12,0.35
46,197,8.966000000000003,bird,clock,1111_snp_hum_0.2_clock_40_n04548280_1438.png,11.0,12,0.2
46,198,0.6838,bicycle,bicycle,1111_snp_hum_0.1_bicycle_40_n03792782_52601.png,11.0,12,0.1
46,199,0.9672,car,car,1111_snp_hum_0.1_car_40_n02814533_89061.png,11.0,12,0.1
46,200,0.617,elephant,elephant,1111_snp_hum_0.1_elephant_40_n02504013_3141.png,11.0,12,0.1
46,201,0.7169,bear,bear,1111_snp_hum_0.1_bear_40_n02134084_6343.png,11.0,9,0.1
46,202,0.9166,knife,knife,1111_snp_hum_0.1_knife_40_n03041632_15444.png,11.0,9,0.1
46,203,0.3839,boat,boat,1111_snp_hum_0.1_boat_40_n02951358_2853.png,11.0,9,0.1
46,204,0.284,bear,bear,1111_snp_hum_0.2_bear_40_n02133161_1498.png,11.0,9,0.2
46,205,5.2498,bicycle,clock,1111_snp_hum_0.35_clock_40_n04548280_11068.png,11.0,9,0.35
46,206,0.6337,elephant,elephant,1111_snp_hum_0.35_elephant_40_n02504458_1848.png,11.0,9,0.35
46,207,0.4004,airplane,airplane,1111_snp_hum_0.2_airplane_40_n02690373_14117.png,11.0,9,0.2
46,208,1.5173,keyboard,keyboard,1111_snp_hum_0.2_keyboard_40_n04505470_4906.png,11.0,9,0.2
46,209,0.4337,bird,bird,1111_snp_hum_0.2_bird_40_n02037110_8732.png,11.0,9,0.2
46,210,0.2672,keyboard,keyboard,1111_snp_hum_0.0_keyboard_40_n03085013_24455.png,11.0,9,0.0
46,211,1.2837,oven,oven,1111_snp_hum_0.0_oven_40_n04111531_10306.png,11.0,9,0.0
46,212,0.4669,elephant,elephant,1111_snp_hum_0.0_elephant_40_n02504013_19694.png,11.0,9,0.0
46,213,2.4337,car,truck,1111_snp_hum_0.35_truck_40_n03417042_14000.png,11.0,9,0.35
46,214,3.0836,cat,dog,1111_snp_hum_0.35_dog_40_n02105056_328.png,11.0,9,0.35
46,215,1.9504,cat,clock,1111_snp_hum_0.2_clock_40_n04548280_8585.png,11.0,9,0.2
46,216,2.9001,dog,boat,1111_snp_hum_0.35_boat_40_n02951358_34441.png,11.0,9,0.35
46,217,0.4006,cat,cat,1111_snp_hum_0.1_cat_40_n02124075_9716.png,11.0,9,0.1
46,218,0.9506,bottle,bottle,1111_snp_hum_0.0_bottle_40_n04591713_2024.png,11.0,9,0.0
46,219,1.2006,bird,bird,1111_snp_hum_0.1_bird_40_n02009229_5962.png,11.0,9,0.1
46,220,0.5503,dog,dog,1111_snp_hum_0.0_dog_40_n02096437_6439.png,11.0,9,0.0
46,221,0.2338,bicycle,bicycle,1111_snp_hum_0.1_bicycle_40_n03792782_23560.png,11.0,10,0.1
46,222,0.484,keyboard,keyboard,1111_snp_hum_0.0_keyboard_40_n03085013_25181.png,11.0,10,0.0
46,223,0.7836,knife,knife,1111_snp_hum_0.1_knife_40_n03041632_24277.png,11.0,10,0.1
46,224,1.3835,clock,clock,1111_snp_hum_0.2_clock_40_n03196217_4417.png,11.0,10,0.2
46,225,1.6839,dog,cat,1111_snp_hum_0.2_cat_40_n02123159_3226.png,11.0,10,0.2
46,226,1.5505,boat,boat,1111_snp_hum_0.2_boat_40_n04612504_8942.png,11.0,10,0.2
46,227,3.4506,boat,bottle,1111_snp_hum_0.2_bottle_40_n04591713_7221.png,11.0,10,0.2
46,228,0.8836,bird,bird,1111_snp_hum_0.1_bird_40_n02007558_45529.png,11.0,10,0.1
46,229,1.2504,car,chair,1111_snp_hum_0.35_chair_40_n04429376_19101.png,11.0,10,0.35
46,230,0.2837,dog,dog,1111_snp_hum_0.1_dog_40_n02108000_324.png,11.0,10,0.1
46,231,0.9001,keyboard,chair,1111_snp_hum_0.35_chair_40_n04429376_3620.png,11.0,10,0.35
46,232,2.1002,clock,clock,1111_snp_hum_0.0_clock_40_n04548280_711.png,11.0,10,0.0
46,233,0.5341,truck,truck,1111_snp_hum_0.0_truck_40_n03417042_23440.png,11.0,10,0.0
46,234,1.0673,bear,elephant,1111_snp_hum_0.2_elephant_40_n02504458_1844.png,11.0,10,0.2
46,235,1.2007,truck,truck,1111_snp_hum_0.35_truck_40_n04467665_50932.png,11.0,10,0.35
46,236,0.4505,car,car,1111_snp_hum_0.35_car_40_n03100240_6954.png,11.0,10,0.35
46,237,0.8668,elephant,bird,1111_snp_hum_0.35_bird_40_n01537544_2772.png,11.0,10,0.35
46,238,0.3836,car,car,1111_snp_hum_0.0_car_40_n04285008_2789.png,11.0,10,0.0
46,239,1.1506,truck,keyboard,1111_snp_hum_0.1_keyboard_40_n04505470_1430.png,11.0,10,0.1
46,240,0.4843,boat,boat,1111_snp_hum_0.0_boat_40_n02951358_5718.png,11.0,10,0.0
46,241,0.3675,bird,bird,1111_snp_hum_0.0_bird_40_n02018795_11949.png,11.0,13,0.0
46,242,1.3338,chair,chair,1111_snp_hum_0.0_chair_40_n02791124_9124.png,11.0,13,0.0
46,243,0.7337,dog,dog,1111_snp_hum_0.1_dog_40_n02113624_1203.png,11.0,13,0.1
46,244,0.7007,bird,bird,1111_snp_hum_0.2_bird_40_n01819313_3893.png,11.0,13,0.2
46,245,0.4839,keyboard,keyboard,1111_snp_hum_0.2_keyboard_40_n04505470_3947.png,11.0,13,0.2
46,246,0.6336,keyboard,keyboard,1111_snp_hum_0.35_keyboard_40_n03085013_17762.png,11.0,13,0.35
46,247,0.3835,car,car,1111_snp_hum_0.35_car_40_n02814533_27150.png,11.0,13,0.35
46,248,0.3175,car,car,1111_snp_hum_0.0_car_40_n03100240_418.png,11.0,13,0.0
46,249,0.2667,airplane,airplane,1111_snp_hum_0.2_airplane_40_n02690373_6231.png,11.0,13,0.2
46,250,2.2501,boat,oven,1111_snp_hum_0.35_oven_40_n04111531_11530.png,11.0,13,0.35
46,251,0.3172,chair,chair,1111_snp_hum_0.2_chair_40_n03376595_2566.png,11.0,13,0.2
46,252,0.9672,car,bottle,1111_snp_hum_0.35_bottle_40_n02823428_7033.png,11.0,13,0.35
46,253,0.3667,bear,bear,1111_snp_hum_0.1_bear_40_n02134084_34728.png,11.0,13,0.1
46,254,1.3006,knife,knife,1111_snp_hum_0.2_knife_40_n03041632_48071.png,11.0,13,0.2
46,255,6.2332,chair,airplane,1111_snp_hum_0.35_airplane_40_n02690373_6999.png,11.0,13,0.35
46,256,0.2841,airplane,airplane,1111_snp_hum_0.0_airplane_40_n02690373_8789.png,11.0,13,0.0
46,257,0.3836,elephant,elephant,1111_snp_hum_0.0_elephant_40_n02504458_4336.png,11.0,13,0.0
46,258,1.2336,airplane,boat,1111_snp_hum_0.1_boat_40_n03344393_302.png,11.0,13,0.1
46,259,2.1831,keyboard,clock,1111_snp_hum_0.1_clock_40_n02708093_2843.png,11.0,13,0.1
46,260,0.9504,car,boat,1111_snp_hum_0.1_boat_40_n04273569_1141.png,11.0,13,0.1
46,261,0.3505,chair,chair,1111_snp_hum_0.1_chair_40_n03376595_820.png,11.0,14,0.1
46,262,0.6503,boat,boat,1111_snp_hum_0.0_boat_40_n03344393_6758.png,11.0,14,0.0
46,263,0.6172,dog,dog,1111_snp_hum_0.0_dog_40_n02112706_2952.png,11.0,14,0.0
46,264,1.0008,dog,bicycle,1111_snp_hum_0.2_bicycle_40_n03792782_3631.png,11.0,14,0.2
46,265,1.2836,bottle,bottle,1111_snp_hum_0.1_bottle_40_n04560804_11601.png,11.0,14,0.1
46,266,0.7006,keyboard,keyboard,1111_snp_hum_0.0_keyboard_40_n03085013_4160.png,11.0,14,0.0
46,267,2.9502,chair,elephant,1111_snp_hum_0.35_elephant_40_n02504013_8385.png,11.0,14,0.35
46,268,0.9005,boat,boat,1111_snp_hum_0.35_boat_40_n02951358_8194.png,11.0,14,0.35
46,269,0.3502,car,car,1111_snp_hum_0.2_car_40_n03100240_5489.png,11.0,14,0.2
46,270,1.7837,knife,knife,1111_snp_hum_0.35_knife_40_n03041632_21723.png,11.0,14,0.35
46,271,0.7837,chair,chair,1111_snp_hum_0.1_chair_40_n02791124_2470.png,11.0,14,0.1
46,272,4.3334,clock,truck,1111_snp_hum_0.2_truck_40_n03796401_19114.png,11.0,14,0.2
46,273,0.3837,truck,truck,1111_snp_hum_0.2_truck_40_n03796401_15756.png,11.0,14,0.2
46,274,1.2668,bicycle,bicycle,1111_snp_hum_0.2_bicycle_40_n03792782_47774.png,11.0,14,0.2
46,275,1.0838,boat,boat,1111_snp_hum_0.35_boat_40_n02951358_4826.png,11.0,14,0.35
46,276,0.7338,keyboard,keyboard,1111_snp_hum_0.35_keyboard_40_n03085013_6978.png,11.0,14,0.35
46,277,0.5005,bear,bear,1111_snp_hum_0.0_bear_40_n02134418_4886.png,11.0,14,0.0
46,278,3.6830000000000003,cat,cat,1111_snp_hum_0.1_cat_40_n02123159_2684.png,11.0,14,0.1
46,279,0.5342,bicycle,bicycle,1111_snp_hum_0.0_bicycle_40_n02835271_1299.png,11.0,14,0.0
46,280,0.3841,chair,chair,1111_snp_hum_0.1_chair_40_n04099969_13056.png,11.0,14,0.1
46,281,0.6837,elephant,elephant,1111_snp_hum_0.0_elephant_40_n02504458_7013.png,11.0,15,0.0
46,282,1.3001,airplane,airplane,1111_snp_hum_0.1_airplane_40_n02690373_1837.png,11.0,15,0.1
46,283,0.7838,clock,clock,1111_snp_hum_0.0_clock_40_n04548280_7490.png,11.0,15,0.0
46,284,0.3006,elephant,elephant,1111_snp_hum_0.35_elephant_40_n02504458_5176.png,11.0,15,0.35
46,285,1.0505,bear,bottle,1111_snp_hum_0.35_bottle_40_n04560804_9813.png,11.0,15,0.35
46,286,0.6838,bear,bear,1111_snp_hum_0.1_bear_40_n02132136_11149.png,11.0,15,0.1
46,287,0.3838,truck,truck,1111_snp_hum_0.35_truck_40_n04467665_1077.png,11.0,15,0.35
46,288,0.7835,bottle,bottle,1111_snp_hum_0.2_bottle_40_n02823428_825.png,11.0,15,0.2
46,289,1.5173,car,knife,1111_snp_hum_0.2_knife_40_n03041632_11285.png,11.0,15,0.2
46,290,0.8007,cat,cat,1111_snp_hum_0.1_cat_40_n02124075_8754.png,11.0,15,0.1
46,291,0.6173,bicycle,bicycle,1111_snp_hum_0.0_bicycle_40_n03792782_3047.png,11.0,15,0.0
46,292,0.7168,dog,dog,1111_snp_hum_0.1_dog_40_n02101556_7442.png,11.0,15,0.1
46,293,0.384,bicycle,bicycle,1111_snp_hum_0.35_bicycle_40_n03792782_692.png,11.0,15,0.35
46,294,0.3004,car,car,1111_snp_hum_0.2_car_40_n02814533_1165.png,11.0,15,0.2
46,295,1.0666,bear,dog,1111_snp_hum_0.35_dog_40_n02110806_2586.png,11.0,15,0.35
46,296,1.4505,elephant,bird,1111_snp_hum_0.2_bird_40_n01818515_7890.png,11.0,15,0.2
46,297,1.2337,truck,oven,1111_snp_hum_0.2_oven_40_n04111531_2371.png,11.0,15,0.2
46,298,0.4174,knife,knife,1111_snp_hum_0.0_knife_40_n03041632_11797.png,11.0,15,0.0
46,299,0.7337,bird,bird,1111_snp_hum_0.1_bird_40_n01601694_13334.png,11.0,15,0.1
46,300,1.2837,knife,knife,1111_snp_hum_0.0_knife_40_n03041632_47743.png,11.0,15,0.0
46,301,1.3002,cat,cat,1111_snp_hum_0.0_cat_40_n02123597_3037.png,11.0,16,0.0
46,302,0.3672,truck,truck,1111_snp_hum_0.1_truck_40_n03417042_10300.png,11.0,16,0.1
46,303,0.3006,airplane,airplane,1111_snp_hum_0.1_airplane_40_n02690373_1161.png,11.0,16,0.1
46,304,0.6337,keyboard,keyboard,1111_snp_hum_0.2_keyboard_40_n04505470_2570.png,11.0,16,0.2
46,305,0.8838,bicycle,clock,1111_snp_hum_0.2_clock_40_n03196217_4004.png,11.0,16,0.2
46,306,0.9836,cat,cat,1111_snp_hum_0.0_cat_40_n02123597_5017.png,11.0,16,0.0
46,307,3.4499,bicycle,oven,1111_snp_hum_0.1_oven_40_n04111531_4.png,11.0,16,0.1
46,308,0.9676,car,oven,1111_snp_hum_0.35_oven_40_n04111531_10011.png,11.0,16,0.35
46,309,0.8005,cat,oven,1111_snp_hum_0.2_oven_40_n04111531_15649.png,11.0,16,0.2
46,310,2.017,bear,elephant,1111_snp_hum_0.35_elephant_40_n02504013_10462.png,11.0,16,0.35
46,311,0.4838,bear,bear,1111_snp_hum_0.0_bear_40_n02134418_703.png,11.0,16,0.0
46,312,0.5004,truck,truck,1111_snp_hum_0.35_truck_40_n03417042_10043.png,11.0,16,0.35
46,313,1.1335,bear,bear,1111_snp_hum_0.2_bear_40_n02132136_1934.png,11.0,16,0.2
46,314,0.5169,dog,dog,1111_snp_hum_0.2_dog_40_n02099712_5781.png,11.0,16,0.2
46,315,0.6504,clock,clock,1111_snp_hum_0.35_clock_40_n03196217_8943.png,11.0,16,0.35
46,316,0.6673,clock,clock,1111_snp_hum_0.0_clock_40_n02708093_3459.png,11.0,16,0.0
46,317,1.2503,cat,cat,1111_snp_hum_0.35_cat_40_n02123394_2364.png,11.0,16,0.35
46,318,1.4837,bottle,bottle,1111_snp_hum_0.1_bottle_40_n04579145_1302.png,11.0,16,0.1
46,319,0.3843,car,car,1111_snp_hum_0.1_car_40_n04285008_10287.png,11.0,16,0.1
46,320,0.3674,bird,bird,1111_snp_hum_0.0_bird_40_n02037110_11551.png,11.0,16,0.0
83,1,1.7669,boat,airplane,1111_snp_hum_0.1_airplane_40_n02690373_3874.png,10.0,1,0.1
83,2,1.3001,clock,clock,1111_snp_hum_0.0_clock_40_n03196217_585.png,10.0,1,0.0
83,3,2.367,truck,truck,1111_snp_hum_0.1_truck_40_n03417042_1656.png,10.0,1,0.1
83,4,8.1329,bird,dog,1111_snp_hum_0.35_dog_40_n02088632_2814.png,10.0,1,0.35
83,5,0.767,chair,chair,1111_snp_hum_0.0_chair_40_n04429376_10128.png,10.0,1,0.0
83,6,1.0669,bear,bear,1111_snp_hum_0.2_bear_40_n02132136_5184.png,10.0,1,0.2
83,7,0.5171,clock,clock,1111_snp_hum_0.1_clock_40_n03196217_8614.png,10.0,1,0.1
83,8,1.4171,airplane,bird,1111_snp_hum_0.35_bird_40_n01860187_6891.png,10.0,1,0.35
83,9,2.1337,car,truck,1111_snp_hum_0.2_truck_40_n03796401_4309.png,10.0,1,0.2
83,10,5.3328,bicycle,clock,1111_snp_hum_0.1_clock_40_n03196217_5478.png,10.0,1,0.1
83,11,0.6007,bear,bear,1111_snp_hum_0.35_bear_40_n02132136_3169.png,10.0,1,0.35
83,12,1.1337,chair,knife,1111_snp_hum_0.1_knife_40_n03041632_105081.png,10.0,1,0.1
83,13,2.2838,cat,cat,1111_snp_hum_0.2_cat_40_n02123045_9341.png,10.0,1,0.2
83,14,3.8833,keyboard,chair,1111_snp_hum_0.35_chair_40_n04099969_2267.png,10.0,1,0.35
83,15,2.4835,boat,knife,1111_snp_hum_0.2_knife_40_n03041632_32785.png,10.0,1,0.2
83,16,2.05,bottle,bottle,1111_snp_hum_0.2_bottle_40_n03937543_3759.png,10.0,1,0.2
83,17,4.383,bicycle,bottle,1111_snp_hum_0.35_bottle_40_n04591713_5754.png,10.0,1,0.35
83,18,1.2171,knife,knife,1111_snp_hum_0.0_knife_40_n03041632_24114.png,10.0,1,0.0
83,19,0.5005,bicycle,bicycle,1111_snp_hum_0.0_bicycle_40_n03792782_14216.png,10.0,1,0.0
83,20,1.2005,oven,oven,1111_snp_hum_0.0_oven_40_n04111531_13247.png,10.0,1,0.0
83,21,0.3670000000000001,car,car,1111_snp_hum_0.0_car_40_n02814533_32461.png,10.0,2,0.0
83,22,1.55,chair,chair,1111_snp_hum_0.0_chair_40_n04429376_9212.png,10.0,2,0.0
83,23,0.3835,elephant,elephant,1111_snp_hum_0.1_elephant_40_n02504458_4954.png,10.0,2,0.1
83,24,0.3666,elephant,elephant,1111_snp_hum_0.2_elephant_40_n02504458_1735.png,10.0,2,0.2
83,25,0.2837,car,car,1111_snp_hum_0.2_car_40_n04285008_9470.png,10.0,2,0.2
83,26,3.2332,dog,oven,1111_snp_hum_0.1_oven_40_n04111531_18592.png,10.0,2,0.1
83,27,0.5673,bicycle,bicycle,1111_snp_hum_0.35_bicycle_40_n02835271_15038.png,10.0,2,0.35
83,28,0.7170000000000001,dog,dog,1111_snp_hum_0.1_dog_40_n02106382_14862.png,10.0,2,0.1
83,29,1.3506,boat,airplane,1111_snp_hum_0.35_airplane_40_n02690373_1071.png,10.0,2,0.35
83,30,3.7502,clock,boat,1111_snp_hum_0.2_boat_40_n03344393_7433.png,10.0,2,0.2
83,31,0.5338,elephant,elephant,1111_snp_hum_0.2_elephant_40_n02504458_1998.png,10.0,2,0.2
83,32,2.6004,car,boat,1111_snp_hum_0.2_boat_40_n02951358_19768.png,10.0,2,0.2
83,33,3.9167,bird,dog,1111_snp_hum_0.35_dog_40_n02112018_370.png,10.0,2,0.35
83,34,0.3172,car,car,1111_snp_hum_0.0_car_40_n03100240_24331.png,10.0,2,0.0
83,35,1.7001,boat,boat,1111_snp_hum_0.35_boat_40_n02951358_34051.png,10.0,2,0.35
83,36,0.8838,bird,bird,1111_snp_hum_0.0_bird_40_n01537544_15048.png,10.0,2,0.0
83,37,0.4502,bicycle,bicycle,1111_snp_hum_0.35_bicycle_40_n03792782_17337.png,10.0,2,0.35
83,38,2.0506,truck,knife,1111_snp_hum_0.1_knife_40_n03041632_25022.png,10.0,2,0.1
83,39,2.1335,bottle,bottle,1111_snp_hum_0.1_bottle_40_n04591713_6238.png,10.0,2,0.1
83,40,0.5504,dog,dog,1111_snp_hum_0.0_dog_40_n02105056_9209.png,10.0,2,0.0
83,41,0.5336,keyboard,keyboard,1111_snp_hum_0.1_keyboard_40_n03085013_24618.png,10.0,3,0.1
83,42,0.4168,cat,cat,1111_snp_hum_0.0_cat_40_n02124075_14094.png,10.0,3,0.0
83,43,0.4671,airplane,airplane,1111_snp_hum_0.0_airplane_40_n02690373_2435.png,10.0,3,0.0
83,44,1.1174,bear,bird,1111_snp_hum_0.0_bird_40_n01530575_6098.png,10.0,3,0.0
83,45,1.817,car,keyboard,1111_snp_hum_0.35_keyboard_40_n03085013_24577.png,10.0,3,0.35
83,46,0.9670000000000001,knife,knife,1111_snp_hum_0.0_knife_40_n03041632_3210.png,10.0,3,0.0
83,47,0.5003,keyboard,keyboard,1111_snp_hum_0.35_keyboard_40_n03085013_6038.png,10.0,3,0.35
83,48,0.9337,bird,bird,1111_snp_hum_0.35_bird_40_n01531178_8282.png,10.0,3,0.35
83,49,1.4833,cat,oven,1111_snp_hum_0.35_oven_40_n04111531_7034.png,10.0,3,0.35
83,50,0.4007,airplane,airplane,1111_snp_hum_0.2_airplane_40_n02690373_6853.png,10.0,3,0.2
83,51,0.9005,bird,bear,1111_snp_hum_0.2_bear_40_n02134418_4041.png,10.0,3,0.2
83,52,0.3839,chair,chair,1111_snp_hum_0.2_chair_40_n03376595_4469.png,10.0,3,0.2
83,53,1.5003,car,car,1111_snp_hum_0.1_car_40_n04285008_3280.png,10.0,3,0.1
83,54,3.0334,bicycle,oven,1111_snp_hum_0.1_oven_40_n04111531_9712.png,10.0,3,0.1
83,55,1.4334,bird,bear,1111_snp_hum_0.2_bear_40_n02132136_6787.png,10.0,3,0.2
83,56,2.35,bottle,cat,1111_snp_hum_0.35_cat_40_n02123045_8774.png,10.0,3,0.35
83,57,0.8673,chair,chair,1111_snp_hum_0.2_chair_40_n04429376_18127.png,10.0,3,0.2
83,58,0.5669,elephant,elephant,1111_snp_hum_0.1_elephant_40_n02504458_3953.png,10.0,3,0.1
83,59,0.7172,airplane,clock,1111_snp_hum_0.1_clock_40_n02708093_1431.png,10.0,3,0.1
83,60,0.8169,truck,truck,1111_snp_hum_0.0_truck_40_n03417042_19905.png,10.0,3,0.0
83,61,1.1337,bottle,bottle,1111_snp_hum_0.1_bottle_40_n03983396_11337.png,10.0,4,0.1
83,62,0.3503,elephant,elephant,1111_snp_hum_0.0_elephant_40_n02504013_868.png,10.0,4,0.0
83,63,2.4837,dog,cat,1111_snp_hum_0.1_cat_40_n02124075_862.png,10.0,4,0.1
83,64,0.5838,truck,truck,1111_snp_hum_0.0_truck_40_n03796401_4495.png,10.0,4,0.0
83,65,1.5838,boat,boat,1111_snp_hum_0.2_boat_40_n04612504_7166.png,10.0,4,0.2
83,66,1.5832,oven,oven,1111_snp_hum_0.35_oven_40_n04111531_18645.png,10.0,4,0.35
83,67,0.9002,bicycle,bicycle,1111_snp_hum_0.2_bicycle_40_n02835271_13131.png,10.0,4,0.2
83,68,1.6507,truck,truck,1111_snp_hum_0.2_truck_40_n04467665_11776.png,10.0,4,0.2
83,69,0.9839,bird,bird,1111_snp_hum_0.1_bird_40_n01843383_8077.png,10.0,4,0.1
83,70,1.4169,chair,keyboard,1111_snp_hum_0.1_keyboard_40_n04505470_1833.png,10.0,4,0.1
83,71,0.2507,cat,cat,1111_snp_hum_0.2_cat_40_n02123045_2025.png,10.0,4,0.2
83,72,1.5004,boat,bottle,1111_snp_hum_0.35_bottle_40_n04560804_32398.png,10.0,4,0.35
83,73,2.2006,elephant,clock,1111_snp_hum_0.35_clock_40_n03196217_5252.png,10.0,4,0.35
83,74,0.5169,car,car,1111_snp_hum_0.35_car_40_n03100240_6805.png,10.0,4,0.35
83,75,1.0168,boat,boat,1111_snp_hum_0.0_boat_40_n02951358_32429.png,10.0,4,0.0
83,76,0.5837,dog,dog,1111_snp_hum_0.2_dog_40_n02101388_2075.png,10.0,4,0.2
83,77,2.4168,car,airplane,1111_snp_hum_0.35_airplane_40_n02690373_2024.png,10.0,4,0.35
83,78,0.4,bicycle,bicycle,1111_snp_hum_0.1_bicycle_40_n02835271_15925.png,10.0,4,0.1
83,79,0.9998,bear,bear,1111_snp_hum_0.0_bear_40_n02134084_5027.png,10.0,4,0.0
83,80,0.6672,keyboard,keyboard,1111_snp_hum_0.0_keyboard_40_n03085013_19436.png,10.0,4,0.0
83,81,1.1507,boat,boat,1111_snp_hum_0.0_boat_40_n02951358_12866.png,10.0,5,0.0
83,82,1.1836,clock,clock,1111_snp_hum_0.0_clock_40_n03196217_6809.png,10.0,5,0.0
83,83,0.7674,bear,bear,1111_snp_hum_0.1_bear_40_n02134084_4612.png,10.0,5,0.1
83,84,0.4837,cat,cat,1111_snp_hum_0.2_cat_40_n02124075_20957.png,10.0,5,0.2
83,85,0.4506,bicycle,bicycle,1111_snp_hum_0.0_bicycle_40_n02835271_8081.png,10.0,5,0.0
83,86,0.9843,oven,oven,1111_snp_hum_0.1_oven_40_n04111531_9490.png,10.0,5,0.1
83,87,2.8669,cat,bottle,1111_snp_hum_0.2_bottle_40_n04560804_12278.png,10.0,5,0.2
83,88,1.3337,chair,knife,1111_snp_hum_0.35_knife_40_n03041632_11475.png,10.0,5,0.35
83,89,0.4668,keyboard,keyboard,1111_snp_hum_0.35_keyboard_40_n03085013_2122.png,10.0,5,0.35
83,90,2.9505,knife,knife,1111_snp_hum_0.35_knife_40_n03041632_26340.png,10.0,5,0.35
83,91,0.7338,knife,knife,1111_snp_hum_0.2_knife_40_n03041632_47410.png,10.0,5,0.2
83,92,0.8338,bicycle,bicycle,1111_snp_hum_0.35_bicycle_40_n02835271_8273.png,10.0,5,0.35
83,93,1.1838,bird,oven,1111_snp_hum_0.0_oven_40_n04111531_2930.png,10.0,5,0.0
83,94,1.3003,boat,airplane,1111_snp_hum_0.35_airplane_40_n02690373_2070.png,10.0,5,0.35
83,95,1.3005,bird,bottle,1111_snp_hum_0.2_bottle_40_n04591713_595.png,10.0,5,0.2
83,96,0.4003,elephant,elephant,1111_snp_hum_0.1_elephant_40_n02504458_7408.png,10.0,5,0.1
83,97,0.5341,dog,dog,1111_snp_hum_0.2_dog_40_n02107142_1550.png,10.0,5,0.2
83,98,0.41700000000000004,keyboard,keyboard,1111_snp_hum_0.1_keyboard_40_n04505470_2115.png,10.0,5,0.1
83,99,0.2672,car,car,1111_snp_hum_0.1_car_40_n02814533_83068.png,10.0,5,0.1
83,100,2.8339,bottle,bottle,1111_snp_hum_0.0_bottle_40_n04560804_13773.png,10.0,5,0.0
83,101,0.4166,boat,boat,1111_snp_hum_0.0_boat_40_n02951358_15424.png,10.0,6,0.0
83,102,1.5669,cat,dog,1111_snp_hum_0.1_dog_40_n02102318_11816.png,10.0,6,0.1
83,103,0.3838,elephant,elephant,1111_snp_hum_0.1_elephant_40_n02504013_1916.png,10.0,6,0.1
83,104,2.7336,dog,cat,1111_snp_hum_0.35_cat_40_n02124075_8351.png,10.0,6,0.35
83,105,0.5004,car,car,1111_snp_hum_0.35_car_40_n02814533_18458.png,10.0,6,0.35
83,106,0.41700000000000004,airplane,airplane,1111_snp_hum_0.2_airplane_40_n02690373_3912.png,10.0,6,0.2
83,107,0.4837,bird,bird,1111_snp_hum_0.2_bird_40_n01532829_22520.png,10.0,6,0.2
83,108,0.9002,dog,chair,1111_snp_hum_0.1_chair_40_n04099969_2398.png,10.0,6,0.1
83,109,1.3172,bear,bear,1111_snp_hum_0.35_bear_40_n02134084_10224.png,10.0,6,0.35
83,110,0.3838,elephant,elephant,1111_snp_hum_0.35_elephant_40_n02504458_4.png,10.0,6,0.35
83,111,0.7173,keyboard,keyboard,1111_snp_hum_0.2_keyboard_40_n04505470_6272.png,10.0,6,0.2
83,112,0.3005,dog,dog,1111_snp_hum_0.2_dog_40_n02090721_1456.png,10.0,6,0.2
83,113,0.5676,airplane,airplane,1111_snp_hum_0.2_airplane_40_n02690373_4243.png,10.0,6,0.2
83,114,2.5005,chair,chair,1111_snp_hum_0.0_chair_40_n04429376_42324.png,10.0,6,0.0
83,115,1.4999,bird,bird,1111_snp_hum_0.0_bird_40_n01530575_4260.png,10.0,6,0.0
83,116,0.6005,car,car,1111_snp_hum_0.1_car_40_n04285008_7096.png,10.0,6,0.1
83,117,2.0002,boat,bear,1111_snp_hum_0.35_bear_40_n02133161_10314.png,10.0,6,0.35
83,118,0.9672,oven,oven,1111_snp_hum_0.0_oven_40_n04111531_21973.png,10.0,6,0.0
83,119,0.4168,keyboard,keyboard,1111_snp_hum_0.1_keyboard_40_n04505470_933.png,10.0,6,0.1
83,120,0.5171,oven,oven,1111_snp_hum_0.0_oven_40_n04111531_23215.png,10.0,6,0.0
83,121,0.3005,bear,bear,1111_snp_hum_0.1_bear_40_n02133161_2137.png,10.0,7,0.1
83,122,0.8336,bottle,bottle,1111_snp_hum_0.0_bottle_40_n04560804_19872.png,10.0,7,0.0
83,123,0.5673,dog,dog,1111_snp_hum_0.0_dog_40_n02100877_20916.png,10.0,7,0.0
83,124,1.6669999999999998,cat,knife,1111_snp_hum_0.35_knife_40_n03041632_31909.png,10.0,7,0.35
83,125,0.884,boat,boat,1111_snp_hum_0.35_boat_40_n02951358_31835.png,10.0,7,0.35
83,126,0.2336,airplane,airplane,1111_snp_hum_0.1_airplane_40_n02690373_1277.png,10.0,7,0.1
83,127,0.5673,clock,clock,1111_snp_hum_0.35_clock_40_n02708093_462.png,10.0,7,0.35
83,128,2.4505,bear,bird,1111_snp_hum_0.35_bird_40_n02025239_22501.png,10.0,7,0.35
83,129,0.4673,bird,bird,1111_snp_hum_0.35_bird_40_n02033041_6633.png,10.0,7,0.35
83,130,1.4334,boat,boat,1111_snp_hum_0.2_boat_40_n04612504_30742.png,10.0,7,0.2
83,131,1.0669,bottle,bottle,1111_snp_hum_0.0_bottle_40_n04591713_2718.png,10.0,7,0.0
83,132,0.5842,chair,chair,1111_snp_hum_0.2_chair_40_n03376595_4309.png,10.0,7,0.2
83,133,0.3336,elephant,elephant,1111_snp_hum_0.2_elephant_40_n02504013_6660.png,10.0,7,0.2
83,134,0.3505,bicycle,bicycle,1111_snp_hum_0.1_bicycle_40_n03792782_3467.png,10.0,7,0.1
83,135,2.2835,bicycle,cat,1111_snp_hum_0.2_cat_40_n02123159_6505.png,10.0,7,0.2
83,136,0.2672,car,car,1111_snp_hum_0.2_car_40_n02814533_82925.png,10.0,7,0.2
83,137,0.3335,keyboard,keyboard,1111_snp_hum_0.0_keyboard_40_n03085013_1483.png,10.0,7,0.0
83,138,0.6835,boat,boat,1111_snp_hum_0.1_boat_40_n02951358_14612.png,10.0,7,0.1
83,139,0.8675,truck,truck,1111_snp_hum_0.0_truck_40_n03417042_11.png,10.0,7,0.0
83,140,2.9837,chair,truck,1111_snp_hum_0.1_truck_40_n03417042_12486.png,10.0,7,0.1
83,141,1.0836,truck,truck,1111_snp_hum_0.1_truck_40_n03796401_14381.png,10.0,8,0.1
83,142,0.4167,truck,truck,1111_snp_hum_0.0_truck_40_n03417042_28078.png,10.0,8,0.0
83,143,0.484,dog,dog,1111_snp_hum_0.0_dog_40_n02098105_1796.png,10.0,8,0.0
83,144,2.75,bird,chair,1111_snp_hum_0.35_chair_40_n03376595_6837.png,10.0,8,0.35
83,145,1.2838,clock,clock,1111_snp_hum_0.35_clock_40_n04548280_3997.png,10.0,8,0.35
83,146,1.8339,cat,bear,1111_snp_hum_0.35_bear_40_n02134418_4895.png,10.0,8,0.35
83,147,0.5669,bicycle,bicycle,1111_snp_hum_0.2_bicycle_40_n02835271_7873.png,10.0,8,0.2
83,148,0.4337,elephant,elephant,1111_snp_hum_0.0_elephant_40_n02504458_3140.png,10.0,8,0.0
83,149,0.4336,car,car,1111_snp_hum_0.35_car_40_n02814533_23512.png,10.0,8,0.35
83,150,0.3505,chair,chair,1111_snp_hum_0.2_chair_40_n04099969_18182.png,10.0,8,0.2
83,151,0.7337,cat,cat,1111_snp_hum_0.35_cat_40_n02123394_2690.png,10.0,8,0.35
83,152,1.4172,oven,clock,1111_snp_hum_0.2_clock_40_n04548280_2518.png,10.0,8,0.2
83,153,1.5836,keyboard,knife,1111_snp_hum_0.0_knife_40_n03041632_4808.png,10.0,8,0.0
83,154,0.4339,airplane,airplane,1111_snp_hum_0.0_airplane_40_n02690373_19152.png,10.0,8,0.0
83,155,0.5836,truck,truck,1111_snp_hum_0.2_truck_40_n03796401_17504.png,10.0,8,0.2
83,156,0.5334,cat,cat,1111_snp_hum_0.1_cat_40_n02124075_3533.png,10.0,8,0.1
83,157,0.6337,oven,oven,1111_snp_hum_0.2_oven_40_n04111531_326.png,10.0,8,0.2
83,158,0.7505,bicycle,bicycle,1111_snp_hum_0.1_bicycle_40_n03792782_33855.png,10.0,8,0.1
83,159,0.6003,bird,bird,1111_snp_hum_0.1_bird_40_n02027492_2004.png,10.0,8,0.1
83,160,2.2503,clock,clock,1111_snp_hum_0.1_clock_40_n03196217_3943.png,10.0,8,0.1
83,161,2.7165,bottle,bottle,1111_snp_hum_0.1_bottle_40_n03983396_4843.png,10.0,11,0.1
83,162,0.5667,bicycle,bicycle,1111_snp_hum_0.0_bicycle_40_n02835271_276.png,10.0,11,0.0
83,163,2.4162,bird,boat,1111_snp_hum_0.1_boat_40_n04273569_13091.png,10.0,11,0.1
83,164,1.4669999999999999,car,oven,1111_snp_hum_0.2_oven_40_n04111531_9844.png,10.0,11,0.2
83,165,0.8169,knife,knife,1111_snp_hum_0.1_knife_40_n03041632_17338.png,10.0,11,0.1
83,166,0.7172,cat,cat,1111_snp_hum_0.35_cat_40_n02123394_2903.png,10.0,11,0.35
83,167,0.7835,truck,truck,1111_snp_hum_0.1_truck_40_n03417042_12133.png,10.0,11,0.1
83,168,0.9672,dog,dog,1111_snp_hum_0.2_dog_40_n02097130_1834.png,10.0,11,0.2
83,169,0.8666,truck,truck,1111_snp_hum_0.35_truck_40_n03417042_16389.png,10.0,11,0.35
83,170,0.9669,bear,oven,1111_snp_hum_0.2_oven_40_n04111531_14611.png,10.0,11,0.2
83,171,1.7005,bicycle,bicycle,1111_snp_hum_0.2_bicycle_40_n03792782_1030.png,10.0,11,0.2
83,172,1.3171,bottle,knife,1111_snp_hum_0.2_knife_40_n03041632_83826.png,10.0,11,0.2
83,173,1.5999,dog,dog,1111_snp_hum_0.35_dog_40_n02110806_16707.png,10.0,11,0.35
83,174,0.534,bottle,bottle,1111_snp_hum_0.0_bottle_40_n03937543_2357.png,10.0,11,0.0
83,175,0.6005,bear,bear,1111_snp_hum_0.35_bear_40_n02134084_2004.png,10.0,11,0.35
83,176,0.3168,airplane,airplane,1111_snp_hum_0.35_airplane_40_n02690373_4728.png,10.0,11,0.35
83,177,0.3841,cat,cat,1111_snp_hum_0.0_cat_40_n02123045_964.png,10.0,11,0.0
83,178,0.317,airplane,airplane,1111_snp_hum_0.0_airplane_40_n02690373_3993.png,10.0,11,0.0
83,179,0.3006,airplane,airplane,1111_snp_hum_0.1_airplane_40_n02690373_5870.png,10.0,11,0.1
83,180,1.3004,cat,bear,1111_snp_hum_0.0_bear_40_n02134084_19407.png,10.0,11,0.0
84,1,1.7837,oven,oven,1111_snp_hum_0.0_oven_40_n04111531_13247.png,11.0,1,0.0
84,2,1.8998,truck,clock,1111_snp_hum_0.1_clock_40_n03196217_5478.png,11.0,1,0.1
84,3,1.0170000000000001,truck,truck,1111_snp_hum_0.1_truck_40_n03417042_1656.png,11.0,1,0.1
84,4,2.0005,elephant,bear,1111_snp_hum_0.2_bear_40_n02132136_5184.png,11.0,1,0.2
84,5,1.617,chair,chair,1111_snp_hum_0.0_chair_40_n04429376_10128.png,11.0,1,0.0
84,6,0.9005,bear,bear,1111_snp_hum_0.35_bear_40_n02132136_3169.png,11.0,1,0.35
84,7,1.7337,chair,chair,1111_snp_hum_0.35_chair_40_n04099969_2267.png,11.0,1,0.35
84,8,14.8155,car,bird,1111_snp_hum_0.35_bird_40_n01860187_6891.png,11.0,1,0.35
84,9,1.0003,cat,cat,1111_snp_hum_0.2_cat_40_n02123045_9341.png,11.0,1,0.2
84,10,3.4999,bottle,bottle,1111_snp_hum_0.2_bottle_40_n03937543_3759.png,11.0,1,0.2
84,11,9.2993,keyboard,bottle,1111_snp_hum_0.35_bottle_40_n04591713_5754.png,11.0,1,0.35
84,12,11.5824,keyboard,knife,1111_snp_hum_0.1_knife_40_n03041632_105081.png,11.0,1,0.1
84,13,1.0502,clock,clock,1111_snp_hum_0.1_clock_40_n03196217_8614.png,11.0,1,0.1
84,14,7.5162,bird,knife,1111_snp_hum_0.2_knife_40_n03041632_32785.png,11.0,1,0.2
84,15,15.4655,knife,dog,1111_snp_hum_0.35_dog_40_n02088632_2814.png,11.0,1,0.35
84,16,0.9837,truck,truck,1111_snp_hum_0.2_truck_40_n03796401_4309.png,11.0,1,0.2
84,17,4.65,knife,knife,1111_snp_hum_0.0_knife_40_n03041632_24114.png,11.0,1,0.0
84,18,0.9168,clock,clock,1111_snp_hum_0.0_clock_40_n03196217_585.png,11.0,1,0.0
84,19,0.9169,bicycle,bicycle,1111_snp_hum_0.0_bicycle_40_n03792782_14216.png,11.0,1,0.0
84,20,3.1499,bird,airplane,1111_snp_hum_0.1_airplane_40_n02690373_3874.png,11.0,1,0.1
84,21,0.6173,car,car,1111_snp_hum_0.0_car_40_n03100240_24331.png,11.0,2,0.0
84,22,4.8001,dog,oven,1111_snp_hum_0.1_oven_40_n04111531_18592.png,11.0,2,0.1
84,23,1.0173,bottle,bottle,1111_snp_hum_0.1_bottle_40_n04591713_6238.png,11.0,2,0.1
84,24,21.0977,knife,airplane,1111_snp_hum_0.35_airplane_40_n02690373_1071.png,11.0,2,0.35
84,25,0.55,elephant,elephant,1111_snp_hum_0.2_elephant_40_n02504458_1735.png,11.0,2,0.2
84,26,0.8839,chair,chair,1111_snp_hum_0.0_chair_40_n04429376_9212.png,11.0,2,0.0
84,27,4.4998,car,boat,1111_snp_hum_0.2_boat_40_n03344393_7433.png,11.0,2,0.2
84,28,8.7325,bird,bird,1111_snp_hum_0.0_bird_40_n01537544_15048.png,11.0,2,0.0
84,29,4.1333,clock,bicycle,1111_snp_hum_0.35_bicycle_40_n03792782_17337.png,11.0,2,0.35
84,30,0.8169,car,car,1111_snp_hum_0.2_car_40_n04285008_9470.png,11.0,2,0.2
84,31,3.8664,chair,dog,1111_snp_hum_0.35_dog_40_n02112018_370.png,11.0,2,0.35
84,32,1.0673,bicycle,bicycle,1111_snp_hum_0.35_bicycle_40_n02835271_15038.png,11.0,2,0.35
84,33,8.0328,bear,boat,1111_snp_hum_0.2_boat_40_n02951358_19768.png,11.0,2,0.2
84,34,1.0001,dog,dog,1111_snp_hum_0.0_dog_40_n02105056_9209.png,11.0,2,0.0
84,35,0.8,elephant,elephant,1111_snp_hum_0.2_elephant_40_n02504458_1998.png,11.0,2,0.2
84,36,2.0008,boat,boat,1111_snp_hum_0.35_boat_40_n02951358_34051.png,11.0,2,0.35
84,37,2.9835,dog,dog,1111_snp_hum_0.1_dog_40_n02106382_14862.png,11.0,2,0.1
84,38,0.8,elephant,elephant,1111_snp_hum_0.1_elephant_40_n02504458_4954.png,11.0,2,0.1
84,39,0.9171,knife,knife,1111_snp_hum_0.1_knife_40_n03041632_25022.png,11.0,2,0.1
84,40,0.7502,car,car,1111_snp_hum_0.0_car_40_n02814533_32461.png,11.0,2,0.0
84,41,0.7007,knife,knife,1111_snp_hum_0.0_knife_40_n03041632_3210.png,11.0,3,0.0
84,42,0.5836,keyboard,keyboard,1111_snp_hum_0.1_keyboard_40_n03085013_24618.png,11.0,3,0.1
84,43,4.7662,car,car,1111_snp_hum_0.1_car_40_n04285008_3280.png,11.0,3,0.1
84,44,7.8498,elephant,bear,1111_snp_hum_0.2_bear_40_n02132136_6787.png,11.0,3,0.2
84,45,0.5667,chair,chair,1111_snp_hum_0.2_chair_40_n03376595_4469.png,11.0,3,0.2
84,46,1.3169,bird,bird,1111_snp_hum_0.35_bird_40_n01531178_8282.png,11.0,3,0.35
84,47,0.9173,chair,chair,1111_snp_hum_0.2_chair_40_n04429376_18127.png,11.0,3,0.2
84,48,11.7825,oven,oven,1111_snp_hum_0.1_oven_40_n04111531_9712.png,11.0,3,0.1
84,49,1.3836,airplane,airplane,1111_snp_hum_0.2_airplane_40_n02690373_6853.png,11.0,3,0.2
84,50,8.633,oven,cat,1111_snp_hum_0.35_cat_40_n02123045_8774.png,11.0,3,0.35
84,51,0.6001,elephant,elephant,1111_snp_hum_0.1_elephant_40_n02504458_3953.png,11.0,3,0.1
84,52,5.2669,chair,keyboard,1111_snp_hum_0.35_keyboard_40_n03085013_24577.png,11.0,3,0.35
84,53,7.5664,bear,bear,1111_snp_hum_0.2_bear_40_n02134418_4041.png,11.0,3,0.2
84,54,0.9836,airplane,airplane,1111_snp_hum_0.0_airplane_40_n02690373_2435.png,11.0,3,0.0
84,55,1.2006,keyboard,keyboard,1111_snp_hum_0.35_keyboard_40_n03085013_6038.png,11.0,3,0.35
84,56,1.2337,bird,bird,1111_snp_hum_0.0_bird_40_n01530575_6098.png,11.0,3,0.0
84,57,3.5834,cat,oven,1111_snp_hum_0.35_oven_40_n04111531_7034.png,11.0,3,0.35
84,58,0.9999,cat,cat,1111_snp_hum_0.0_cat_40_n02124075_14094.png,11.0,3,0.0
84,59,2.5667,truck,truck,1111_snp_hum_0.0_truck_40_n03417042_19905.png,11.0,3,0.0
84,60,7.2998,bottle,clock,1111_snp_hum_0.1_clock_40_n02708093_1431.png,11.0,3,0.1
84,61,0.3337,elephant,elephant,1111_snp_hum_0.0_elephant_40_n02504013_868.png,11.0,4,0.0
84,62,1.6168,boat,boat,1111_snp_hum_0.0_boat_40_n02951358_32429.png,11.0,4,0.0
84,63,1.2503,bird,bird,1111_snp_hum_0.1_bird_40_n01843383_8077.png,11.0,4,0.1
84,64,0.7167,car,car,1111_snp_hum_0.35_car_40_n03100240_6805.png,11.0,4,0.35
84,65,4.7169,clock,bottle,1111_snp_hum_0.1_bottle_40_n03983396_11337.png,11.0,4,0.1
84,66,0.7005,dog,dog,1111_snp_hum_0.2_dog_40_n02101388_2075.png,11.0,4,0.2
84,67,20.698,knife,airplane,1111_snp_hum_0.35_airplane_40_n02690373_2024.png,11.0,4,0.35
84,68,0.8502,bear,bear,1111_snp_hum_0.0_bear_40_n02134084_5027.png,11.0,4,0.0
84,69,1.7664,keyboard,keyboard,1111_snp_hum_0.1_keyboard_40_n04505470_1833.png,11.0,4,0.1
84,70,1.3169,oven,oven,1111_snp_hum_0.35_oven_40_n04111531_18645.png,11.0,4,0.35
84,71,1.3001,bicycle,bicycle,1111_snp_hum_0.2_bicycle_40_n02835271_13131.png,11.0,4,0.2
84,72,1.0171,truck,truck,1111_snp_hum_0.2_truck_40_n04467665_11776.png,11.0,4,0.2
84,73,15.9152,bicycle,clock,1111_snp_hum_0.35_clock_40_n03196217_5252.png,11.0,4,0.35
84,74,0.5003,cat,cat,1111_snp_hum_0.2_cat_40_n02123045_2025.png,11.0,4,0.2
84,75,5.5662,bird,boat,1111_snp_hum_0.2_boat_40_n04612504_7166.png,11.0,4,0.2
84,76,0.7672,keyboard,keyboard,1111_snp_hum_0.0_keyboard_40_n03085013_19436.png,11.0,4,0.0
84,77,7.0997,knife,bottle,1111_snp_hum_0.35_bottle_40_n04560804_32398.png,11.0,4,0.35
84,78,1.0669,cat,cat,1111_snp_hum_0.1_cat_40_n02124075_862.png,11.0,4,0.1
84,79,1.0837,truck,truck,1111_snp_hum_0.0_truck_40_n03796401_4495.png,11.0,4,0.0
84,80,0.7501,bicycle,bicycle,1111_snp_hum_0.1_bicycle_40_n02835271_15925.png,11.0,4,0.1
84,81,1.3002,elephant,bear,1111_snp_hum_0.1_bear_40_n02134084_4612.png,11.0,5,0.1
84,82,4.4666,boat,oven,1111_snp_hum_0.0_oven_40_n04111531_2930.png,11.0,5,0.0
84,83,1.9502,boat,boat,1111_snp_hum_0.0_boat_40_n02951358_12866.png,11.0,5,0.0
84,84,0.8336,keyboard,keyboard,1111_snp_hum_0.1_keyboard_40_n04505470_2115.png,11.0,5,0.1
84,85,0.6005,dog,dog,1111_snp_hum_0.2_dog_40_n02107142_1550.png,11.0,5,0.2
84,86,0.7834,bicycle,bicycle,1111_snp_hum_0.0_bicycle_40_n02835271_8081.png,11.0,5,0.0
84,87,0.8173,bicycle,bicycle,1111_snp_hum_0.35_bicycle_40_n02835271_8273.png,11.0,5,0.35
84,88,0.7837,keyboard,keyboard,1111_snp_hum_0.35_keyboard_40_n03085013_2122.png,11.0,5,0.35
84,89,8.1496,car,knife,1111_snp_hum_0.35_knife_40_n03041632_26340.png,11.0,5,0.35
84,90,6.8163,bear,airplane,1111_snp_hum_0.35_airplane_40_n02690373_2070.png,11.0,5,0.35
84,91,1.3169,cat,cat,1111_snp_hum_0.2_cat_40_n02124075_20957.png,11.0,5,0.2
84,92,6.1665,car,bottle,1111_snp_hum_0.2_bottle_40_n04560804_12278.png,11.0,5,0.2
84,93,5.2166,clock,bottle,1111_snp_hum_0.2_bottle_40_n04591713_595.png,11.0,5,0.2
84,94,0.667,car,car,1111_snp_hum_0.1_car_40_n02814533_83068.png,11.0,5,0.1
84,95,1.0673,knife,knife,1111_snp_hum_0.2_knife_40_n03041632_47410.png,11.0,5,0.2
84,96,2.7835,chair,knife,1111_snp_hum_0.35_knife_40_n03041632_11475.png,11.0,5,0.35
84,97,3.6497,oven,bottle,1111_snp_hum_0.0_bottle_40_n04560804_13773.png,11.0,5,0.0
84,98,3.5833,clock,clock,1111_snp_hum_0.0_clock_40_n03196217_6809.png,11.0,5,0.0
84,99,11.8158,keyboard,oven,1111_snp_hum_0.1_oven_40_n04111531_9490.png,11.0,5,0.1
84,100,0.7838,elephant,elephant,1111_snp_hum_0.1_elephant_40_n02504458_7408.png,11.0,5,0.1
84,101,1.1834,oven,oven,1111_snp_hum_0.0_oven_40_n04111531_21973.png,11.0,6,0.0
84,102,0.5842,elephant,elephant,1111_snp_hum_0.1_elephant_40_n02504013_1916.png,11.0,6,0.1
84,103,2.8169999999999997,chair,chair,1111_snp_hum_0.0_chair_40_n04429376_42324.png,11.0,6,0.0
84,104,1.0838,car,car,1111_snp_hum_0.35_car_40_n02814533_18458.png,11.0,6,0.35
84,105,0.9003,bird,bird,1111_snp_hum_0.2_bird_40_n01532829_22520.png,11.0,6,0.2
84,106,1.4669999999999999,dog,cat,1111_snp_hum_0.35_cat_40_n02124075_8351.png,11.0,6,0.35
84,107,1.0505,bear,bear,1111_snp_hum_0.35_bear_40_n02134084_10224.png,11.0,6,0.35
84,108,0.8505,boat,boat,1111_snp_hum_0.0_boat_40_n02951358_15424.png,11.0,6,0.0
84,109,0.6002,keyboard,keyboard,1111_snp_hum_0.1_keyboard_40_n04505470_933.png,11.0,6,0.1
84,110,0.8173,bird,bird,1111_snp_hum_0.0_bird_40_n01530575_4260.png,11.0,6,0.0
84,111,0.6168,airplane,airplane,1111_snp_hum_0.2_airplane_40_n02690373_4243.png,11.0,6,0.2
84,112,15.0987,bird,dog,1111_snp_hum_0.2_dog_40_n02090721_1456.png,11.0,6,0.2
84,113,0.5505,keyboard,keyboard,1111_snp_hum_0.2_keyboard_40_n04505470_6272.png,11.0,6,0.2
84,114,2.7169,airplane,bear,1111_snp_hum_0.35_bear_40_n02133161_10314.png,11.0,6,0.35
84,115,0.6504,airplane,airplane,1111_snp_hum_0.2_airplane_40_n02690373_3912.png,11.0,6,0.2
84,116,6.7497,dog,dog,1111_snp_hum_0.1_dog_40_n02102318_11816.png,11.0,6,0.1
84,117,0.8005,elephant,elephant,1111_snp_hum_0.35_elephant_40_n02504458_4.png,11.0,6,0.35
84,118,1.0669,oven,oven,1111_snp_hum_0.0_oven_40_n04111531_23215.png,11.0,6,0.0
84,119,1.567,chair,chair,1111_snp_hum_0.1_chair_40_n04099969_2398.png,11.0,6,0.1
84,120,0.8672,car,car,1111_snp_hum_0.1_car_40_n04285008_7096.png,11.0,6,0.1
84,121,0.8005,boat,boat,1111_snp_hum_0.1_boat_40_n02951358_14612.png,11.0,7,0.1
84,122,0.4835,bicycle,bicycle,1111_snp_hum_0.1_bicycle_40_n03792782_3467.png,11.0,7,0.1
84,123,2.7669,truck,truck,1111_snp_hum_0.1_truck_40_n03417042_12486.png,11.0,7,0.1
84,124,2.3832,chair,knife,1111_snp_hum_0.35_knife_40_n03041632_31909.png,11.0,7,0.35
84,125,1.2171,airplane,airplane,1111_snp_hum_0.1_airplane_40_n02690373_1277.png,11.0,7,0.1
84,126,4.4332,bird,bird,1111_snp_hum_0.35_bird_40_n02033041_6633.png,11.0,7,0.35
84,127,0.584,dog,dog,1111_snp_hum_0.0_dog_40_n02100877_20916.png,11.0,7,0.0
84,128,0.6668,car,car,1111_snp_hum_0.2_car_40_n02814533_82925.png,11.0,7,0.2
84,129,3.7166,boat,boat,1111_snp_hum_0.2_boat_40_n04612504_30742.png,11.0,7,0.2
84,130,3.6166,dog,boat,1111_snp_hum_0.35_boat_40_n02951358_31835.png,11.0,7,0.35
84,131,0.5671,chair,chair,1111_snp_hum_0.2_chair_40_n03376595_4309.png,11.0,7,0.2
84,132,0.8507,elephant,elephant,1111_snp_hum_0.2_elephant_40_n02504013_6660.png,11.0,7,0.2
84,133,1.1837,clock,clock,1111_snp_hum_0.35_clock_40_n02708093_462.png,11.0,7,0.35
84,134,0.7505,truck,truck,1111_snp_hum_0.0_truck_40_n03417042_11.png,11.0,7,0.0
84,135,2.4333,bottle,bottle,1111_snp_hum_0.0_bottle_40_n04560804_19872.png,11.0,7,0.0
84,136,7.5328,bird,cat,1111_snp_hum_0.2_cat_40_n02123159_6505.png,11.0,7,0.2
84,137,7.0165,knife,bird,1111_snp_hum_0.35_bird_40_n02025239_22501.png,11.0,7,0.35
84,138,1.1506,bear,bear,1111_snp_hum_0.1_bear_40_n02133161_2137.png,11.0,7,0.1
84,139,0.7507,keyboard,keyboard,1111_snp_hum_0.0_keyboard_40_n03085013_1483.png,11.0,7,0.0
84,140,2.6339,bottle,bottle,1111_snp_hum_0.0_bottle_40_n04591713_2718.png,11.0,7,0.0
84,141,1.0335,truck,truck,1111_snp_hum_0.1_truck_40_n03796401_14381.png,11.0,8,0.1
84,142,0.9667,clock,clock,1111_snp_hum_0.1_clock_40_n03196217_3943.png,11.0,8,0.1
84,143,0.5505,cat,cat,1111_snp_hum_0.1_cat_40_n02124075_3533.png,11.0,8,0.1
84,144,0.8337,truck,truck,1111_snp_hum_0.2_truck_40_n03796401_17504.png,11.0,8,0.2
84,145,0.6167,elephant,elephant,1111_snp_hum_0.0_elephant_40_n02504458_3140.png,11.0,8,0.0
84,146,1.5004,clock,clock,1111_snp_hum_0.2_clock_40_n04548280_2518.png,11.0,8,0.2
84,147,2.0004,oven,oven,1111_snp_hum_0.2_oven_40_n04111531_326.png,11.0,8,0.2
84,148,1.1337,bicycle,bicycle,1111_snp_hum_0.2_bicycle_40_n02835271_7873.png,11.0,8,0.2
84,149,0.9671,cat,cat,1111_snp_hum_0.35_cat_40_n02123394_2690.png,11.0,8,0.35
84,150,2.1001,knife,knife,1111_snp_hum_0.0_knife_40_n03041632_4808.png,11.0,8,0.0
84,151,2.3338,car,bear,1111_snp_hum_0.35_bear_40_n02134418_4895.png,11.0,8,0.35
84,152,2.9002,chair,chair,1111_snp_hum_0.35_chair_40_n03376595_6837.png,11.0,8,0.35
84,153,0.9173,bird,bird,1111_snp_hum_0.1_bird_40_n02027492_2004.png,11.0,8,0.1
84,154,18.6813,bottle,clock,1111_snp_hum_0.35_clock_40_n04548280_3997.png,11.0,8,0.35
84,155,0.7838,chair,chair,1111_snp_hum_0.2_chair_40_n04099969_18182.png,11.0,8,0.2
84,156,1.1501,bicycle,bicycle,1111_snp_hum_0.1_bicycle_40_n03792782_33855.png,11.0,8,0.1
84,157,1.0337,car,car,1111_snp_hum_0.35_car_40_n02814533_23512.png,11.0,8,0.35
84,158,1.35,dog,dog,1111_snp_hum_0.0_dog_40_n02098105_1796.png,11.0,8,0.0
84,159,0.8,airplane,airplane,1111_snp_hum_0.0_airplane_40_n02690373_19152.png,11.0,8,0.0
84,160,1.9004,truck,truck,1111_snp_hum_0.0_truck_40_n03417042_28078.png,11.0,8,0.0
84,161,0.45,car,car,1111_snp_hum_0.1_car_40_n02814533_89061.png,11.0,12,0.1
84,162,0.9336,chair,chair,1111_snp_hum_0.0_chair_40_n04099969_20900.png,11.0,12,0.0
84,163,0.8671,elephant,elephant,1111_snp_hum_0.1_elephant_40_n02504013_3141.png,11.0,12,0.1
84,164,1.1833,elephant,knife,1111_snp_hum_0.35_knife_40_n03041632_14224.png,11.0,12,0.35
84,165,0.9337,oven,oven,1111_snp_hum_0.1_oven_40_n04111531_1229.png,11.0,12,0.1
84,166,3.3338,bear,bird,1111_snp_hum_0.2_bird_40_n02007558_10725.png,11.0,12,0.2
84,167,0.9837,chair,chair,1111_snp_hum_0.35_chair_40_n04429376_8395.png,11.0,12,0.35
84,168,2.0503,chair,chair,1111_snp_hum_0.1_chair_40_n02791124_141.png,11.0,12,0.1
84,169,0.8337,airplane,airplane,1111_snp_hum_0.0_airplane_40_n02690373_18693.png,11.0,12,0.0
84,170,2.1838,oven,oven,1111_snp_hum_0.35_oven_40_n04111531_1054.png,11.0,12,0.35
84,171,1.367,keyboard,keyboard,1111_snp_hum_0.2_keyboard_40_n04505470_1874.png,11.0,12,0.2
84,172,1.1501,car,car,1111_snp_hum_0.2_car_40_n02814533_75974.png,11.0,12,0.2
84,173,2.9001,bottle,bottle,1111_snp_hum_0.35_bottle_40_n04560804_15228.png,11.0,12,0.35
84,174,3.3332,bear,bear,1111_snp_hum_0.0_bear_40_n02134418_832.png,11.0,12,0.0
84,175,0.5839,elephant,elephant,1111_snp_hum_0.2_elephant_40_n02504458_5561.png,11.0,12,0.2
84,176,6.7163,dog,bicycle,1111_snp_hum_0.35_bicycle_40_n03792782_11597.png,11.0,12,0.35
84,177,0.8003,clock,clock,1111_snp_hum_0.2_clock_40_n04548280_1438.png,11.0,12,0.2
84,178,0.4675,cat,cat,1111_snp_hum_0.0_cat_40_n02123159_3330.png,11.0,12,0.0
84,179,0.4337,car,car,1111_snp_hum_0.0_car_40_n04285008_88.png,11.0,12,0.0
84,180,1.0007,bicycle,bicycle,1111_snp_hum_0.1_bicycle_40_n03792782_52601.png,11.0,12,0.1
97,1,3.95,keyboard,clock,1111_snp_hum_0.1_clock_40_n03196217_5478.png,12.0,1,0.1
97,2,0.8005,airplane,airplane,1111_snp_hum_0.1_airplane_40_n02690373_3874.png,12.0,1,0.1
97,3,0.9835,knife,knife,1111_snp_hum_0.1_knife_40_n03041632_105081.png,12.0,1,0.1
97,4,7.216,chair,cat,1111_snp_hum_0.2_cat_40_n02123045_9341.png,12.0,1,0.2
97,5,1.0171,boat,truck,1111_snp_hum_0.2_truck_40_n03796401_4309.png,12.0,1,0.2
97,6,1.3003,bird,bear,1111_snp_hum_0.2_bear_40_n02132136_5184.png,12.0,1,0.2
97,7,0.5004,bicycle,bicycle,1111_snp_hum_0.0_bicycle_40_n03792782_14216.png,12.0,1,0.0
97,8,14.2487,bear,bottle,1111_snp_hum_0.35_bottle_40_n04591713_5754.png,12.0,1,0.35
97,9,2.7664,keyboard,knife,1111_snp_hum_0.2_knife_40_n03041632_32785.png,12.0,1,0.2
97,10,2.6005,truck,truck,1111_snp_hum_0.1_truck_40_n03417042_1656.png,12.0,1,0.1
97,11,0.9171,bear,bear,1111_snp_hum_0.35_bear_40_n02132136_3169.png,12.0,1,0.35
97,12,2.5501,cat,dog,1111_snp_hum_0.35_dog_40_n02088632_2814.png,12.0,1,0.35
97,13,11.7992,elephant,bottle,1111_snp_hum_0.2_bottle_40_n03937543_3759.png,12.0,1,0.2
97,14,0.6338,clock,clock,1111_snp_hum_0.1_clock_40_n03196217_8614.png,12.0,1,0.1
97,15,0.8004,clock,clock,1111_snp_hum_0.0_clock_40_n03196217_585.png,12.0,1,0.0
97,16,6.6827,airplane,bird,1111_snp_hum_0.35_bird_40_n01860187_6891.png,12.0,1,0.35
97,17,8.4326,chair,chair,1111_snp_hum_0.35_chair_40_n04099969_2267.png,12.0,1,0.35
97,18,1.1505,knife,knife,1111_snp_hum_0.0_knife_40_n03041632_24114.png,12.0,1,0.0
97,19,2.1671,oven,oven,1111_snp_hum_0.0_oven_40_n04111531_13247.png,12.0,1,0.0
97,20,1.2670000000000001,chair,chair,1111_snp_hum_0.0_chair_40_n04429376_10128.png,12.0,1,0.0
97,21,1.5836,oven,oven,1111_snp_hum_0.1_oven_40_n04111531_18592.png,12.0,2,0.1
97,22,0.8837,chair,chair,1111_snp_hum_0.0_chair_40_n04429376_9212.png,12.0,2,0.0
97,23,6.882999999999999,keyboard,knife,1111_snp_hum_0.1_knife_40_n03041632_25022.png,12.0,2,0.1
97,24,4.2833,boat,boat,1111_snp_hum_0.2_boat_40_n03344393_7433.png,12.0,2,0.2
97,25,1.4168,boat,boat,1111_snp_hum_0.35_boat_40_n02951358_34051.png,12.0,2,0.35
97,26,0.5837,car,car,1111_snp_hum_0.0_car_40_n03100240_24331.png,12.0,2,0.0
97,27,9.0656,chair,dog,1111_snp_hum_0.35_dog_40_n02112018_370.png,12.0,2,0.35
97,28,0.5503,car,car,1111_snp_hum_0.2_car_40_n04285008_9470.png,12.0,2,0.2
97,29,3.1168,boat,boat,1111_snp_hum_0.2_boat_40_n02951358_19768.png,12.0,2,0.2
97,30,4.9,boat,airplane,1111_snp_hum_0.35_airplane_40_n02690373_1071.png,12.0,2,0.35
97,31,0.4674,bicycle,bicycle,1111_snp_hum_0.35_bicycle_40_n02835271_15038.png,12.0,2,0.35
97,32,1.2006,elephant,elephant,1111_snp_hum_0.2_elephant_40_n02504458_1998.png,12.0,2,0.2
97,33,0.8336,bicycle,bicycle,1111_snp_hum_0.35_bicycle_40_n03792782_17337.png,12.0,2,0.35
97,34,0.4005,elephant,elephant,1111_snp_hum_0.1_elephant_40_n02504458_4954.png,12.0,2,0.1
97,35,2.6667,dog,dog,1111_snp_hum_0.1_dog_40_n02106382_14862.png,12.0,2,0.1
97,36,0.7174,car,car,1111_snp_hum_0.0_car_40_n02814533_32461.png,12.0,2,0.0
97,37,0.4005,elephant,elephant,1111_snp_hum_0.2_elephant_40_n02504458_1735.png,12.0,2,0.2
97,38,1.167,bird,bird,1111_snp_hum_0.0_bird_40_n01537544_15048.png,12.0,2,0.0
97,39,0.5503,dog,dog,1111_snp_hum_0.0_dog_40_n02105056_9209.png,12.0,2,0.0
97,40,4.7001,chair,bottle,1111_snp_hum_0.1_bottle_40_n04591713_6238.png,12.0,2,0.1
97,41,0.2505,cat,cat,1111_snp_hum_0.0_cat_40_n02124075_14094.png,12.0,3,0.0
97,42,0.3835,airplane,airplane,1111_snp_hum_0.0_airplane_40_n02690373_2435.png,12.0,3,0.0
97,43,0.8505,clock,clock,1111_snp_hum_0.1_clock_40_n02708093_1431.png,12.0,3,0.1
97,44,1.1502,truck,truck,1111_snp_hum_0.0_truck_40_n03417042_19905.png,12.0,3,0.0
97,45,1.5167,elephant,oven,1111_snp_hum_0.1_oven_40_n04111531_9712.png,12.0,3,0.1
97,46,0.9173,keyboard,keyboard,1111_snp_hum_0.35_keyboard_40_n03085013_6038.png,12.0,3,0.35
97,47,0.7173,airplane,airplane,1111_snp_hum_0.2_airplane_40_n02690373_6853.png,12.0,3,0.2
97,48,0.5173,bird,bird,1111_snp_hum_0.35_bird_40_n01531178_8282.png,12.0,3,0.35
97,49,8.8824,boat,cat,1111_snp_hum_0.35_cat_40_n02123045_8774.png,12.0,3,0.35
97,50,5.2497,bird,oven,1111_snp_hum_0.35_oven_40_n04111531_7034.png,12.0,3,0.35
97,51,1.8333,cat,bear,1111_snp_hum_0.2_bear_40_n02134418_4041.png,12.0,3,0.2
97,52,1.7001,keyboard,keyboard,1111_snp_hum_0.35_keyboard_40_n03085013_24577.png,12.0,3,0.35
97,53,0.9335,chair,chair,1111_snp_hum_0.2_chair_40_n04429376_18127.png,12.0,3,0.2
97,54,0.8505,knife,knife,1111_snp_hum_0.0_knife_40_n03041632_3210.png,12.0,3,0.0
97,55,0.9834,bird,bear,1111_snp_hum_0.2_bear_40_n02132136_6787.png,12.0,3,0.2
97,56,0.5674,chair,chair,1111_snp_hum_0.2_chair_40_n03376595_4469.png,12.0,3,0.2
97,57,0.4171,elephant,elephant,1111_snp_hum_0.1_elephant_40_n02504458_3953.png,12.0,3,0.1
97,58,0.4003,keyboard,keyboard,1111_snp_hum_0.1_keyboard_40_n03085013_24618.png,12.0,3,0.1
97,59,0.6168,car,car,1111_snp_hum_0.1_car_40_n04285008_3280.png,12.0,3,0.1
97,60,0.7340000000000001,bird,bird,1111_snp_hum_0.0_bird_40_n01530575_6098.png,12.0,3,0.0
97,61,0.4836,elephant,elephant,1111_snp_hum_0.0_elephant_40_n02504013_868.png,12.0,4,0.0
97,62,3.2499,bear,cat,1111_snp_hum_0.1_cat_40_n02124075_862.png,12.0,4,0.1
97,63,0.6338,bicycle,bicycle,1111_snp_hum_0.1_bicycle_40_n02835271_15925.png,12.0,4,0.1
97,64,0.4336,car,car,1111_snp_hum_0.35_car_40_n03100240_6805.png,12.0,4,0.35
97,65,0.9341,boat,boat,1111_snp_hum_0.2_boat_40_n04612504_7166.png,12.0,4,0.2
97,66,0.3338,cat,cat,1111_snp_hum_0.2_cat_40_n02123045_2025.png,12.0,4,0.2
97,67,0.6671,bicycle,bicycle,1111_snp_hum_0.2_bicycle_40_n02835271_13131.png,12.0,4,0.2
97,68,0.6338,bear,bear,1111_snp_hum_0.0_bear_40_n02134084_5027.png,12.0,4,0.0
97,69,1.0669,dog,dog,1111_snp_hum_0.2_dog_40_n02101388_2075.png,12.0,4,0.2
97,70,0.8507,keyboard,keyboard,1111_snp_hum_0.0_keyboard_40_n03085013_19436.png,12.0,4,0.0
97,71,1.6169,truck,truck,1111_snp_hum_0.0_truck_40_n03796401_4495.png,12.0,4,0.0
97,72,1.0003,car,truck,1111_snp_hum_0.2_truck_40_n04467665_11776.png,12.0,4,0.2
97,73,2.1833,oven,oven,1111_snp_hum_0.35_oven_40_n04111531_18645.png,12.0,4,0.35
97,74,2.7834,car,airplane,1111_snp_hum_0.35_airplane_40_n02690373_2024.png,12.0,4,0.35
97,75,7.433,cat,clock,1111_snp_hum_0.35_clock_40_n03196217_5252.png,12.0,4,0.35
97,76,2.3168,bear,bottle,1111_snp_hum_0.35_bottle_40_n04560804_32398.png,12.0,4,0.35
97,77,10.1658,bottle,bottle,1111_snp_hum_0.1_bottle_40_n03983396_11337.png,12.0,4,0.1
97,78,4.5837,bicycle,boat,1111_snp_hum_0.0_boat_40_n02951358_32429.png,12.0,4,0.0
97,79,4.7331,keyboard,keyboard,1111_snp_hum_0.1_keyboard_40_n04505470_1833.png,12.0,4,0.1
97,80,0.6007,bird,bird,1111_snp_hum_0.1_bird_40_n01843383_8077.png,12.0,4,0.1
98,1,1.217,boat,airplane,1111_snp_hum_0.1_airplane_40_n02690373_3874.png,12.0,1,0.1
98,2,0.4338,bicycle,bicycle,1111_snp_hum_0.0_bicycle_40_n03792782_14216.png,12.0,1,0.0
98,3,4.9,chair,chair,1111_snp_hum_0.0_chair_40_n04429376_10128.png,12.0,1,0.0
98,4,9.9824,bottle,chair,1111_snp_hum_0.35_chair_40_n04099969_2267.png,12.0,1,0.35
98,5,4.65,keyboard,knife,1111_snp_hum_0.2_knife_40_n03041632_32785.png,12.0,1,0.2
98,6,3.6664,bicycle,bottle,1111_snp_hum_0.35_bottle_40_n04591713_5754.png,12.0,1,0.35
98,7,3.2,car,dog,1111_snp_hum_0.35_dog_40_n02088632_2814.png,12.0,1,0.35
98,8,5.8996,truck,cat,1111_snp_hum_0.2_cat_40_n02123045_9341.png,12.0,1,0.2
98,9,2.4506,boat,bear,1111_snp_hum_0.2_bear_40_n02132136_5184.png,12.0,1,0.2
98,10,2.217,chair,bottle,1111_snp_hum_0.2_bottle_40_n03937543_3759.png,12.0,1,0.2
98,11,4.0332,chair,clock,1111_snp_hum_0.1_clock_40_n03196217_5478.png,12.0,1,0.1
98,12,1.5007,truck,truck,1111_snp_hum_0.2_truck_40_n03796401_4309.png,12.0,1,0.2
98,13,0.7006,bear,bear,1111_snp_hum_0.35_bear_40_n02132136_3169.png,12.0,1,0.35
98,14,1.3499,clock,clock,1111_snp_hum_0.1_clock_40_n03196217_8614.png,12.0,1,0.1
98,15,2.6337,chair,knife,1111_snp_hum_0.1_knife_40_n03041632_105081.png,12.0,1,0.1
98,16,2.0999,bird,bird,1111_snp_hum_0.35_bird_40_n01860187_6891.png,12.0,1,0.35
98,17,5.5333,oven,knife,1111_snp_hum_0.0_knife_40_n03041632_24114.png,12.0,1,0.0
98,18,1.2832,oven,oven,1111_snp_hum_0.0_oven_40_n04111531_13247.png,12.0,1,0.0
98,19,0.8170000000000001,clock,clock,1111_snp_hum_0.0_clock_40_n03196217_585.png,12.0,1,0.0
98,20,3.4169,truck,truck,1111_snp_hum_0.1_truck_40_n03417042_1656.png,12.0,1,0.1
98,21,0.6003,dog,dog,1111_snp_hum_0.0_dog_40_n02105056_9209.png,12.0,2,0.0
98,22,2.4332,elephant,elephant,1111_snp_hum_0.1_elephant_40_n02504458_4954.png,12.0,2,0.1
98,23,3.7334,dog,dog,1111_snp_hum_0.1_dog_40_n02106382_14862.png,12.0,2,0.1
98,24,4.1002,truck,airplane,1111_snp_hum_0.35_airplane_40_n02690373_1071.png,12.0,2,0.35
98,25,1.0337,elephant,elephant,1111_snp_hum_0.2_elephant_40_n02504458_1998.png,12.0,2,0.2
98,26,5.382999999999999,chair,boat,1111_snp_hum_0.35_boat_40_n02951358_34051.png,12.0,2,0.35
98,27,0.7839,bicycle,bicycle,1111_snp_hum_0.35_bicycle_40_n02835271_15038.png,12.0,2,0.35
98,28,6.3666,car,boat,1111_snp_hum_0.2_boat_40_n03344393_7433.png,12.0,2,0.2
98,29,2.3503,chair,chair,1111_snp_hum_0.0_chair_40_n04429376_9212.png,12.0,2,0.0
98,30,0.5008,elephant,elephant,1111_snp_hum_0.2_elephant_40_n02504458_1735.png,12.0,2,0.2
98,31,4.3835,chair,bottle,1111_snp_hum_0.1_bottle_40_n04591713_6238.png,12.0,2,0.1
98,32,0.3836,car,car,1111_snp_hum_0.0_car_40_n02814533_32461.png,12.0,2,0.0
98,33,10.4489,keyboard,dog,1111_snp_hum_0.35_dog_40_n02112018_370.png,12.0,2,0.35
98,34,2.9833,car,bicycle,1111_snp_hum_0.35_bicycle_40_n03792782_17337.png,12.0,2,0.35
98,35,2.6329,chair,boat,1111_snp_hum_0.2_boat_40_n02951358_19768.png,12.0,2,0.2
98,36,1.8669,elephant,oven,1111_snp_hum_0.1_oven_40_n04111531_18592.png,12.0,2,0.1
98,37,0.4004,car,car,1111_snp_hum_0.2_car_40_n04285008_9470.png,12.0,2,0.2
98,38,0.2505,car,car,1111_snp_hum_0.0_car_40_n03100240_24331.png,12.0,2,0.0
98,39,3.2836,bird,bird,1111_snp_hum_0.0_bird_40_n01537544_15048.png,12.0,2,0.0
98,40,0.7671,knife,knife,1111_snp_hum_0.1_knife_40_n03041632_25022.png,12.0,2,0.1
98,41,6.3498,chair,bird,1111_snp_hum_0.0_bird_40_n01530575_6098.png,12.0,3,0.0
98,42,0.5337,car,car,1111_snp_hum_0.1_car_40_n04285008_3280.png,12.0,3,0.1
98,43,0.4672,knife,knife,1111_snp_hum_0.0_knife_40_n03041632_3210.png,12.0,3,0.0
98,44,0.5673,keyboard,keyboard,1111_snp_hum_0.1_keyboard_40_n03085013_24618.png,12.0,3,0.1
98,45,0.3672,keyboard,keyboard,1111_snp_hum_0.35_keyboard_40_n03085013_6038.png,12.0,3,0.35
98,46,1.9335,bird,bear,1111_snp_hum_0.2_bear_40_n02134418_4041.png,12.0,3,0.2
98,47,0.6005,elephant,elephant,1111_snp_hum_0.1_elephant_40_n02504458_3953.png,12.0,3,0.1
98,48,2.6332,chair,oven,1111_snp_hum_0.35_oven_40_n04111531_7034.png,12.0,3,0.35
98,49,0.8003,truck,truck,1111_snp_hum_0.0_truck_40_n03417042_19905.png,12.0,3,0.0
98,50,1.1836,bird,bird,1111_snp_hum_0.35_bird_40_n01531178_8282.png,12.0,3,0.35
98,51,1.2338,airplane,airplane,1111_snp_hum_0.2_airplane_40_n02690373_6853.png,12.0,3,0.2
98,52,1.6005,chair,chair,1111_snp_hum_0.2_chair_40_n04429376_18127.png,12.0,3,0.2
98,53,0.4337,chair,chair,1111_snp_hum_0.2_chair_40_n03376595_4469.png,12.0,3,0.2
98,54,1.5836,bird,cat,1111_snp_hum_0.35_cat_40_n02123045_8774.png,12.0,3,0.35
98,55,1.9007,chair,keyboard,1111_snp_hum_0.35_keyboard_40_n03085013_24577.png,12.0,3,0.35
98,56,1.2,elephant,bear,1111_snp_hum_0.2_bear_40_n02132136_6787.png,12.0,3,0.2
98,57,0.434,airplane,airplane,1111_snp_hum_0.0_airplane_40_n02690373_2435.png,12.0,3,0.0
98,58,1.5836,elephant,oven,1111_snp_hum_0.1_oven_40_n04111531_9712.png,12.0,3,0.1
98,59,0.3341,cat,cat,1111_snp_hum_0.0_cat_40_n02124075_14094.png,12.0,3,0.0
98,60,3.05,chair,clock,1111_snp_hum_0.1_clock_40_n02708093_1431.png,12.0,3,0.1
98,61,1.2336,car,keyboard,1111_snp_hum_0.1_keyboard_40_n04505470_1833.png,12.0,4,0.1
98,62,4.3168,bottle,bottle,1111_snp_hum_0.1_bottle_40_n03983396_11337.png,12.0,4,0.1
98,63,0.5004,cat,cat,1111_snp_hum_0.1_cat_40_n02124075_862.png,12.0,4,0.1
98,64,1.6335,oven,oven,1111_snp_hum_0.35_oven_40_n04111531_18645.png,12.0,4,0.35
98,65,0.4005,car,car,1111_snp_hum_0.35_car_40_n03100240_6805.png,12.0,4,0.35
98,66,0.3006,bicycle,bicycle,1111_snp_hum_0.1_bicycle_40_n02835271_15925.png,12.0,4,0.1
98,67,1.9505,car,clock,1111_snp_hum_0.35_clock_40_n03196217_5252.png,12.0,4,0.35
98,68,2.2669,chair,truck,1111_snp_hum_0.2_truck_40_n04467665_11776.png,12.0,4,0.2
98,69,0.9503,bicycle,bicycle,1111_snp_hum_0.2_bicycle_40_n02835271_13131.png,12.0,4,0.2
98,70,0.8672,boat,boat,1111_snp_hum_0.0_boat_40_n02951358_32429.png,12.0,4,0.0
98,71,0.4673,elephant,elephant,1111_snp_hum_0.0_elephant_40_n02504013_868.png,12.0,4,0.0
98,72,0.4506,dog,dog,1111_snp_hum_0.2_dog_40_n02101388_2075.png,12.0,4,0.2
98,73,3.1666,boat,airplane,1111_snp_hum_0.35_airplane_40_n02690373_2024.png,12.0,4,0.35
98,74,0.6836,keyboard,keyboard,1111_snp_hum_0.0_keyboard_40_n03085013_19436.png,12.0,4,0.0
98,75,1.1504,elephant,bottle,1111_snp_hum_0.35_bottle_40_n04560804_32398.png,12.0,4,0.35
98,76,1.9005,boat,boat,1111_snp_hum_0.2_boat_40_n04612504_7166.png,12.0,4,0.2
98,77,0.5172,cat,cat,1111_snp_hum_0.2_cat_40_n02123045_2025.png,12.0,4,0.2
98,78,0.3339,bear,bear,1111_snp_hum_0.0_bear_40_n02134084_5027.png,12.0,4,0.0
98,79,0.7001,truck,truck,1111_snp_hum_0.0_truck_40_n03796401_4495.png,12.0,4,0.0
98,80,2.5003,chair,bird,1111_snp_hum_0.1_bird_40_n01843383_8077.png,12.0,4,0.1
98,81,1.1667,boat,boat,1111_snp_hum_0.0_boat_40_n02951358_12866.png,12.0,5,0.0
98,82,1.0839,oven,bottle,1111_snp_hum_0.0_bottle_40_n04560804_13773.png,12.0,5,0.0
98,83,0.5169,elephant,elephant,1111_snp_hum_0.1_elephant_40_n02504458_7408.png,12.0,5,0.1
98,84,0.3171,bicycle,bicycle,1111_snp_hum_0.35_bicycle_40_n02835271_8273.png,12.0,5,0.35
98,85,1.9668,chair,knife,1111_snp_hum_0.35_knife_40_n03041632_11475.png,12.0,5,0.35
98,86,6.7995,bicycle,airplane,1111_snp_hum_0.35_airplane_40_n02690373_2070.png,12.0,5,0.35
98,87,0.4169,dog,dog,1111_snp_hum_0.2_dog_40_n02107142_1550.png,12.0,5,0.2
98,88,0.5833,bicycle,bicycle,1111_snp_hum_0.0_bicycle_40_n02835271_8081.png,12.0,5,0.0
98,89,1.9499,chair,knife,1111_snp_hum_0.2_knife_40_n03041632_47410.png,12.0,5,0.2
98,90,0.4838,bear,bear,1111_snp_hum_0.1_bear_40_n02134084_4612.png,12.0,5,0.1
98,91,5.2995,oven,oven,1111_snp_hum_0.0_oven_40_n04111531_2930.png,12.0,5,0.0
98,92,2.8004,oven,bottle,1111_snp_hum_0.2_bottle_40_n04591713_595.png,12.0,5,0.2
98,93,1.1,oven,bottle,1111_snp_hum_0.2_bottle_40_n04560804_12278.png,12.0,5,0.2
98,94,0.4837,cat,cat,1111_snp_hum_0.2_cat_40_n02124075_20957.png,12.0,5,0.2
98,95,0.6667,clock,clock,1111_snp_hum_0.0_clock_40_n03196217_6809.png,12.0,5,0.0
98,96,0.7002,keyboard,keyboard,1111_snp_hum_0.35_keyboard_40_n03085013_2122.png,12.0,5,0.35
98,97,1.1502,bicycle,knife,1111_snp_hum_0.35_knife_40_n03041632_26340.png,12.0,5,0.35
98,98,0.3505,car,car,1111_snp_hum_0.1_car_40_n02814533_83068.png,12.0,5,0.1
98,99,0.4167,keyboard,keyboard,1111_snp_hum_0.1_keyboard_40_n04505470_2115.png,12.0,5,0.1
98,100,0.6006,keyboard,oven,1111_snp_hum_0.1_oven_40_n04111531_9490.png,12.0,5,0.1
98,101,0.2004,car,car,1111_snp_hum_0.1_car_40_n04285008_7096.png,12.0,6,0.1
98,102,1.3338,oven,oven,1111_snp_hum_0.0_oven_40_n04111531_21973.png,12.0,6,0.0
98,103,7.816,chair,chair,1111_snp_hum_0.0_chair_40_n04429376_42324.png,12.0,6,0.0
98,104,0.3505,bear,dog,1111_snp_hum_0.2_dog_40_n02090721_1456.png,12.0,6,0.2
98,105,0.4001,bird,bird,1111_snp_hum_0.0_bird_40_n01530575_4260.png,12.0,6,0.0
98,106,0.9003,dog,dog,1111_snp_hum_0.1_dog_40_n02102318_11816.png,12.0,6,0.1
98,107,1.1668,elephant,cat,1111_snp_hum_0.35_cat_40_n02124075_8351.png,12.0,6,0.35
98,108,0.4339,airplane,airplane,1111_snp_hum_0.2_airplane_40_n02690373_4243.png,12.0,6,0.2
98,109,1.4669999999999999,boat,bear,1111_snp_hum_0.35_bear_40_n02133161_10314.png,12.0,6,0.35
98,110,0.9506,oven,oven,1111_snp_hum_0.0_oven_40_n04111531_23215.png,12.0,6,0.0
98,111,0.2836,keyboard,keyboard,1111_snp_hum_0.1_keyboard_40_n04505470_933.png,12.0,6,0.1
98,112,2.4504,elephant,elephant,1111_snp_hum_0.35_elephant_40_n02504458_4.png,12.0,6,0.35
98,113,0.7168,keyboard,keyboard,1111_snp_hum_0.2_keyboard_40_n04505470_6272.png,12.0,6,0.2
98,114,0.767,airplane,airplane,1111_snp_hum_0.2_airplane_40_n02690373_3912.png,12.0,6,0.2
98,115,0.6173,bear,bear,1111_snp_hum_0.35_bear_40_n02134084_10224.png,12.0,6,0.35
98,116,0.3674,car,car,1111_snp_hum_0.35_car_40_n02814533_18458.png,12.0,6,0.35
98,117,0.9001,bird,bird,1111_snp_hum_0.2_bird_40_n01532829_22520.png,12.0,6,0.2
98,118,0.6501,chair,chair,1111_snp_hum_0.1_chair_40_n04099969_2398.png,12.0,6,0.1
98,119,0.9839,boat,boat,1111_snp_hum_0.0_boat_40_n02951358_15424.png,12.0,6,0.0
98,120,0.5337,elephant,elephant,1111_snp_hum_0.1_elephant_40_n02504013_1916.png,12.0,6,0.1
98,121,0.6334,boat,truck,1111_snp_hum_0.1_truck_40_n03417042_12486.png,12.0,7,0.1
98,122,1.1838,bottle,bottle,1111_snp_hum_0.0_bottle_40_n04591713_2718.png,12.0,7,0.0
98,123,0.317,bear,bear,1111_snp_hum_0.1_bear_40_n02133161_2137.png,12.0,7,0.1
98,124,1.6835,boat,boat,1111_snp_hum_0.1_boat_40_n02951358_14612.png,12.0,7,0.1
98,125,2.1168,elephant,bird,1111_snp_hum_0.35_bird_40_n02033041_6633.png,12.0,7,0.35
98,126,0.7669,airplane,cat,1111_snp_hum_0.2_cat_40_n02123159_6505.png,12.0,7,0.2
98,127,4.4162,elephant,dog,1111_snp_hum_0.0_dog_40_n02100877_20916.png,12.0,7,0.0
98,128,0.9169,elephant,bird,1111_snp_hum_0.35_bird_40_n02025239_22501.png,12.0,7,0.35
98,129,0.3005,car,car,1111_snp_hum_0.2_car_40_n02814533_82925.png,12.0,7,0.2
98,130,1.4006,boat,boat,1111_snp_hum_0.35_boat_40_n02951358_31835.png,12.0,7,0.35
98,131,1.1002,airplane,clock,1111_snp_hum_0.35_clock_40_n02708093_462.png,12.0,7,0.35
98,132,0.6337,chair,chair,1111_snp_hum_0.2_chair_40_n03376595_4309.png,12.0,7,0.2
98,133,0.4177,airplane,airplane,1111_snp_hum_0.1_airplane_40_n02690373_1277.png,12.0,7,0.1
98,134,0.9673,boat,boat,1111_snp_hum_0.2_boat_40_n04612504_30742.png,12.0,7,0.2
98,135,0.4004,bicycle,bicycle,1111_snp_hum_0.1_bicycle_40_n03792782_3467.png,12.0,7,0.1
98,136,1.3339,chair,knife,1111_snp_hum_0.35_knife_40_n03041632_31909.png,12.0,7,0.35
98,137,0.7005,elephant,elephant,1111_snp_hum_0.2_elephant_40_n02504013_6660.png,12.0,7,0.2
98,138,0.7339,bottle,bottle,1111_snp_hum_0.0_bottle_40_n04560804_19872.png,12.0,7,0.0
98,139,0.667,truck,truck,1111_snp_hum_0.0_truck_40_n03417042_11.png,12.0,7,0.0
98,140,0.4336,keyboard,keyboard,1111_snp_hum_0.0_keyboard_40_n03085013_1483.png,12.0,7,0.0
98,141,1.0337,airplane,truck,1111_snp_hum_0.1_truck_40_n03796401_14381.png,12.0,8,0.1
98,142,1.6337,keyboard,knife,1111_snp_hum_0.0_knife_40_n03041632_4808.png,12.0,8,0.0
98,143,0.4505,bird,bird,1111_snp_hum_0.1_bird_40_n02027492_2004.png,12.0,8,0.1
98,144,0.4669,car,car,1111_snp_hum_0.35_car_40_n02814533_23512.png,12.0,8,0.35
98,145,2.2838,bear,bear,1111_snp_hum_0.35_bear_40_n02134418_4895.png,12.0,8,0.35
98,146,0.8338,bicycle,bicycle,1111_snp_hum_0.1_bicycle_40_n03792782_33855.png,12.0,8,0.1
98,147,0.8005,oven,oven,1111_snp_hum_0.2_oven_40_n04111531_326.png,12.0,8,0.2
98,148,0.7668,cat,cat,1111_snp_hum_0.1_cat_40_n02124075_3533.png,12.0,8,0.1
98,149,1.367,clock,clock,1111_snp_hum_0.2_clock_40_n04548280_2518.png,12.0,8,0.2
98,150,0.5837,chair,chair,1111_snp_hum_0.2_chair_40_n04099969_18182.png,12.0,8,0.2
98,151,0.8005,truck,truck,1111_snp_hum_0.2_truck_40_n03796401_17504.png,12.0,8,0.2
98,152,5.6331,oven,clock,1111_snp_hum_0.35_clock_40_n04548280_3997.png,12.0,8,0.35
98,153,0.5670000000000001,clock,clock,1111_snp_hum_0.1_clock_40_n03196217_3943.png,12.0,8,0.1
98,154,0.3005,dog,dog,1111_snp_hum_0.0_dog_40_n02098105_1796.png,12.0,8,0.0
98,155,0.5839,bicycle,bicycle,1111_snp_hum_0.2_bicycle_40_n02835271_7873.png,12.0,8,0.2
98,156,1.2334,chair,chair,1111_snp_hum_0.35_chair_40_n03376595_6837.png,12.0,8,0.35
98,157,1.1005,cat,cat,1111_snp_hum_0.35_cat_40_n02123394_2690.png,12.0,8,0.35
98,158,0.4838,airplane,airplane,1111_snp_hum_0.0_airplane_40_n02690373_19152.png,12.0,8,0.0
98,159,1.3503,truck,truck,1111_snp_hum_0.0_truck_40_n03417042_28078.png,12.0,8,0.0
98,160,0.3506,elephant,elephant,1111_snp_hum_0.0_elephant_40_n02504458_3140.png,12.0,8,0.0
101,1,2.8003,oven,knife,1111_snp_hum_0.0_knife_40_n03041632_24114.png,12.0,1,0.0
101,2,1.6336,clock,clock,1111_snp_hum_0.0_clock_40_n03196217_585.png,12.0,1,0.0
101,3,1.0838,bicycle,bicycle,1111_snp_hum_0.0_bicycle_40_n03792782_14216.png,12.0,1,0.0
101,4,2.9169,airplane,knife,1111_snp_hum_0.2_knife_40_n03041632_32785.png,12.0,1,0.2
101,5,6.8329999999999975,boat,bird,1111_snp_hum_0.35_bird_40_n01860187_6891.png,12.0,1,0.35
101,6,1.6337,airplane,airplane,1111_snp_hum_0.1_airplane_40_n02690373_3874.png,12.0,1,0.1
101,7,1.0337,truck,truck,1111_snp_hum_0.1_truck_40_n03417042_1656.png,12.0,1,0.1
101,8,3.883,cat,dog,1111_snp_hum_0.35_dog_40_n02088632_2814.png,12.0,1,0.35
101,9,3.9332,bear,bottle,1111_snp_hum_0.2_bottle_40_n03937543_3759.png,12.0,1,0.2
101,10,1.4169999999999998,bear,bear,1111_snp_hum_0.35_bear_40_n02132136_3169.png,12.0,1,0.35
101,11,3.1336,chair,chair,1111_snp_hum_0.0_chair_40_n04429376_10128.png,12.0,1,0.0
101,12,2.4007,bear,bear,1111_snp_hum_0.2_bear_40_n02132136_5184.png,12.0,1,0.2
101,13,2.8501,chair,knife,1111_snp_hum_0.1_knife_40_n03041632_105081.png,12.0,1,0.1
101,14,2.7504,chair,chair,1111_snp_hum_0.35_chair_40_n04099969_2267.png,12.0,1,0.35
101,15,4.2332,keyboard,bottle,1111_snp_hum_0.35_bottle_40_n04591713_5754.png,12.0,1,0.35
101,16,7.2993,bird,cat,1111_snp_hum_0.2_cat_40_n02123045_9341.png,12.0,1,0.2
101,17,1.6667,car,truck,1111_snp_hum_0.2_truck_40_n03796401_4309.png,12.0,1,0.2
101,18,1.2502,clock,clock,1111_snp_hum_0.1_clock_40_n03196217_8614.png,12.0,1,0.1
101,19,1.1506,oven,oven,1111_snp_hum_0.0_oven_40_n04111531_13247.png,12.0,1,0.0
101,20,2.1668,truck,clock,1111_snp_hum_0.1_clock_40_n03196217_5478.png,12.0,1,0.1
101,21,1.2998,chair,chair,1111_snp_hum_0.0_chair_40_n04429376_9212.png,12.0,2,0.0
101,22,0.8504,dog,dog,1111_snp_hum_0.0_dog_40_n02105056_9209.png,12.0,2,0.0
101,23,4.2996,car,oven,1111_snp_hum_0.1_oven_40_n04111531_18592.png,12.0,2,0.1
101,24,1.4001,dog,dog,1111_snp_hum_0.1_dog_40_n02106382_14862.png,12.0,2,0.1
101,25,1.7502,elephant,elephant,1111_snp_hum_0.2_elephant_40_n02504458_1735.png,12.0,2,0.2
101,26,3.4168,bicycle,bicycle,1111_snp_hum_0.35_bicycle_40_n02835271_15038.png,12.0,2,0.35
101,27,1.2337,bicycle,bicycle,1111_snp_hum_0.35_bicycle_40_n03792782_17337.png,12.0,2,0.35
101,28,1.0004,car,car,1111_snp_hum_0.0_car_40_n03100240_24331.png,12.0,2,0.0
101,29,0.8834,elephant,elephant,1111_snp_hum_0.2_elephant_40_n02504458_1998.png,12.0,2,0.2
101,30,1.3667,knife,knife,1111_snp_hum_0.1_knife_40_n03041632_25022.png,12.0,2,0.1
101,31,8.1994,oven,boat,1111_snp_hum_0.35_boat_40_n02951358_34051.png,12.0,2,0.35
101,32,5.4494,cat,dog,1111_snp_hum_0.35_dog_40_n02112018_370.png,12.0,2,0.35
101,33,5.4326,car,airplane,1111_snp_hum_0.35_airplane_40_n02690373_1071.png,12.0,2,0.35
101,34,4.1003,keyboard,boat,1111_snp_hum_0.2_boat_40_n02951358_19768.png,12.0,2,0.2
101,35,7.2496,elephant,boat,1111_snp_hum_0.2_boat_40_n03344393_7433.png,12.0,2,0.2
101,36,1.0006,car,car,1111_snp_hum_0.2_car_40_n04285008_9470.png,12.0,2,0.2
101,37,1.9834,truck,bottle,1111_snp_hum_0.1_bottle_40_n04591713_6238.png,12.0,2,0.1
101,38,2.3003,bird,bird,1111_snp_hum_0.0_bird_40_n01537544_15048.png,12.0,2,0.0
101,39,1.0169,elephant,elephant,1111_snp_hum_0.1_elephant_40_n02504458_4954.png,12.0,2,0.1
101,40,1.1007,car,car,1111_snp_hum_0.0_car_40_n02814533_32461.png,12.0,2,0.0
101,41,0.9006,knife,knife,1111_snp_hum_0.0_knife_40_n03041632_3210.png,12.0,3,0.0
101,42,2.7667,elephant,oven,1111_snp_hum_0.1_oven_40_n04111531_9712.png,12.0,3,0.1
101,43,1.0667,car,car,1111_snp_hum_0.1_car_40_n04285008_3280.png,12.0,3,0.1
101,44,1.5503,airplane,airplane,1111_snp_hum_0.0_airplane_40_n02690373_2435.png,12.0,3,0.0
101,45,0.8004,cat,cat,1111_snp_hum_0.0_cat_40_n02124075_14094.png,12.0,3,0.0
101,46,3.417,dog,bear,1111_snp_hum_0.2_bear_40_n02132136_6787.png,12.0,3,0.2
101,47,3.4663,bird,bird,1111_snp_hum_0.35_bird_40_n01531178_8282.png,12.0,3,0.35
101,48,5.7163,elephant,oven,1111_snp_hum_0.35_oven_40_n04111531_7034.png,12.0,3,0.35
101,49,6.4163,car,cat,1111_snp_hum_0.35_cat_40_n02123045_8774.png,12.0,3,0.35
101,50,1.067,truck,truck,1111_snp_hum_0.0_truck_40_n03417042_19905.png,12.0,3,0.0
101,51,7.0996,boat,bear,1111_snp_hum_0.2_bear_40_n02134418_4041.png,12.0,3,0.2
101,52,9.1491,oven,keyboard,1111_snp_hum_0.1_keyboard_40_n03085013_24618.png,12.0,3,0.1
101,53,0.9505,chair,chair,1111_snp_hum_0.2_chair_40_n04429376_18127.png,12.0,3,0.2
101,54,2.0005,airplane,airplane,1111_snp_hum_0.2_airplane_40_n02690373_6853.png,12.0,3,0.2
101,55,2.0498,keyboard,keyboard,1111_snp_hum_0.35_keyboard_40_n03085013_24577.png,12.0,3,0.35
101,56,0.9836,chair,chair,1111_snp_hum_0.2_chair_40_n03376595_4469.png,12.0,3,0.2
101,57,0.9339,keyboard,keyboard,1111_snp_hum_0.35_keyboard_40_n03085013_6038.png,12.0,3,0.35
101,58,2.0503,chair,clock,1111_snp_hum_0.1_clock_40_n02708093_1431.png,12.0,3,0.1
101,59,6.5828,chair,bird,1111_snp_hum_0.0_bird_40_n01530575_6098.png,12.0,3,0.0
101,60,1.05,elephant,elephant,1111_snp_hum_0.1_elephant_40_n02504458_3953.png,12.0,3,0.1
101,61,1.5673,bicycle,bicycle,1111_snp_hum_0.1_bicycle_40_n02835271_15925.png,12.0,4,0.1
101,62,0.8172,truck,truck,1111_snp_hum_0.0_truck_40_n03796401_4495.png,12.0,4,0.0
101,63,2.3833,boat,boat,1111_snp_hum_0.0_boat_40_n02951358_32429.png,12.0,4,0.0
101,64,1.4502,car,keyboard,1111_snp_hum_0.0_keyboard_40_n03085013_19436.png,12.0,4,0.0
101,65,1.0504,bicycle,bicycle,1111_snp_hum_0.2_bicycle_40_n02835271_13131.png,12.0,4,0.2
101,66,0.9174,cat,cat,1111_snp_hum_0.2_cat_40_n02123045_2025.png,12.0,4,0.2
101,67,2.6999,bird,boat,1111_snp_hum_0.2_boat_40_n04612504_7166.png,12.0,4,0.2
101,68,3.1831,elephant,bottle,1111_snp_hum_0.35_bottle_40_n04560804_32398.png,12.0,4,0.35
101,69,1.2503,dog,dog,1111_snp_hum_0.2_dog_40_n02101388_2075.png,12.0,4,0.2
101,70,1.6003,cat,cat,1111_snp_hum_0.1_cat_40_n02124075_862.png,12.0,4,0.1
101,71,2.1004,car,airplane,1111_snp_hum_0.35_airplane_40_n02690373_2024.png,12.0,4,0.35
101,72,4.5832,bicycle,bottle,1111_snp_hum_0.1_bottle_40_n03983396_11337.png,12.0,4,0.1
101,73,0.8836,car,car,1111_snp_hum_0.35_car_40_n03100240_6805.png,12.0,4,0.35
101,74,1.117,oven,oven,1111_snp_hum_0.35_oven_40_n04111531_18645.png,12.0,4,0.35
101,75,0.9674,elephant,elephant,1111_snp_hum_0.0_elephant_40_n02504013_868.png,12.0,4,0.0
101,76,2.1501,car,clock,1111_snp_hum_0.35_clock_40_n03196217_5252.png,12.0,4,0.35
101,77,3.1168,chair,truck,1111_snp_hum_0.2_truck_40_n04467665_11776.png,12.0,4,0.2
101,78,1.2835,bear,bear,1111_snp_hum_0.0_bear_40_n02134084_5027.png,12.0,4,0.0
101,79,5.3661,boat,keyboard,1111_snp_hum_0.1_keyboard_40_n04505470_1833.png,12.0,4,0.1
101,80,1.8336,elephant,bird,1111_snp_hum_0.1_bird_40_n01843383_8077.png,12.0,4,0.1
103,1,6.5496,boat,boat,1111_snp_hum_0.0_boat_40_n02951358_12866.png,12.0,5,0.0
103,2,1.6339,bear,bear,1111_snp_hum_0.1_bear_40_n02134084_4612.png,12.0,5,0.1
103,3,1.9838,boat,oven,1111_snp_hum_0.1_oven_40_n04111531_9490.png,12.0,5,0.1
