subj,trial,rt,object_response,category,imagename,age,block,difficulty
10,1,2.3002,oven,oven,1111_snp_hum_0.0_oven_40_n04111531_13247.png,5.0,1,0.0
10,2,1.1338,clock,clock,1111_snp_hum_0.1_clock_40_n03196217_8614.png,5.0,1,0.1
10,3,1.1006,knife,knife,1111_snp_hum_0.1_knife_40_n03041632_105081.png,5.0,1,0.1
10,4,0.9503,bear,bear,1111_snp_hum_0.35_bear_40_n02132136_3169.png,5.0,1,0.35
10,5,4.5165,bicycle,chair,1111_snp_hum_0.35_chair_40_n04099969_2267.png,5.0,1,0.35
10,6,1.9169999999999998,bear,dog,1111_snp_hum_0.35_dog_40_n02088632_2814.png,5.0,1,0.35
10,7,2.9503,bear,bird,1111_snp_hum_0.35_bird_40_n01860187_6891.png,5.0,1,0.35
10,8,1.1338,bear,bear,1111_snp_hum_0.2_bear_40_n02132136_5184.png,5.0,1,0.2
10,9,19.6312,cat,bottle,1111_snp_hum_0.35_bottle_40_n04591713_5754.png,5.0,1,0.35
10,10,1.8337,truck,truck,1111_snp_hum_0.1_truck_40_n03417042_1656.png,5.0,1,0.1
10,11,60.3595,bicycle,knife,1111_snp_hum_0.2_knife_40_n03041632_32785.png,5.0,1,0.2
10,12,2.8667,oven,clock,1111_snp_hum_0.1_clock_40_n03196217_5478.png,5.0,1,0.1
10,13,2.7834,oven,bottle,1111_snp_hum_0.2_bottle_40_n03937543_3759.png,5.0,1,0.2
10,14,2.2504,bicycle,bicycle,1111_snp_hum_0.0_bicycle_40_n03792782_14216.png,5.0,1,0.0
10,15,2.2671,oven,cat,1111_snp_hum_0.2_cat_40_n02123045_9341.png,5.0,1,0.2
10,16,1.9501,knife,knife,1111_snp_hum_0.0_knife_40_n03041632_24114.png,5.0,1,0.0
10,17,2.2169,truck,truck,1111_snp_hum_0.2_truck_40_n03796401_4309.png,5.0,1,0.2
10,18,8.3662,oven,airplane,1111_snp_hum_0.1_airplane_40_n02690373_3874.png,5.0,1,0.1
10,19,1.9002,chair,chair,1111_snp_hum_0.0_chair_40_n04429376_10128.png,5.0,1,0.0
10,20,1.7838,clock,clock,1111_snp_hum_0.0_clock_40_n03196217_585.png,5.0,1,0.0
10,21,0.7339,elephant,elephant,1111_snp_hum_0.1_elephant_40_n02504458_4954.png,5.0,2,0.1
10,22,10.866,oven,bottle,1111_snp_hum_0.1_bottle_40_n04591713_6238.png,5.0,2,0.1
10,23,1.5171,car,car,1111_snp_hum_0.0_car_40_n02814533_32461.png,5.0,2,0.0
10,24,3.9498,cat,bird,1111_snp_hum_0.0_bird_40_n01537544_15048.png,5.0,2,0.0
10,25,2.5837,bicycle,bicycle,1111_snp_hum_0.35_bicycle_40_n02835271_15038.png,5.0,2,0.35
10,26,5.1997,bear,bicycle,1111_snp_hum_0.35_bicycle_40_n03792782_17337.png,5.0,2,0.35
10,27,1.1336,car,car,1111_snp_hum_0.0_car_40_n03100240_24331.png,5.0,2,0.0
10,28,2.4167,boat,boat,1111_snp_hum_0.35_boat_40_n02951358_34051.png,5.0,2,0.35
10,29,1.6838,elephant,elephant,1111_snp_hum_0.2_elephant_40_n02504458_1735.png,5.0,2,0.2
10,30,1.9506,elephant,elephant,1111_snp_hum_0.2_elephant_40_n02504458_1998.png,5.0,2,0.2
10,31,2.1668,car,car,1111_snp_hum_0.2_car_40_n04285008_9470.png,5.0,2,0.2
10,32,9.0493,truck,dog,1111_snp_hum_0.35_dog_40_n02112018_370.png,5.0,2,0.35
10,33,3.0002,dog,dog,1111_snp_hum_0.1_dog_40_n02106382_14862.png,5.0,2,0.1
10,34,2.3835,dog,airplane,1111_snp_hum_0.35_airplane_40_n02690373_1071.png,5.0,2,0.35
10,35,2.3839,car,boat,1111_snp_hum_0.2_boat_40_n02951358_19768.png,5.0,2,0.2
10,36,2.5836,oven,boat,1111_snp_hum_0.2_boat_40_n03344393_7433.png,5.0,2,0.2
10,37,4.0834,bear,dog,1111_snp_hum_0.0_dog_40_n02105056_9209.png,5.0,2,0.0
10,38,3.3169999999999997,chair,chair,1111_snp_hum_0.0_chair_40_n04429376_9212.png,5.0,2,0.0
10,39,3.1665,bicycle,oven,1111_snp_hum_0.1_oven_40_n04111531_18592.png,5.0,2,0.1
10,40,9.1657,bird,knife,1111_snp_hum_0.1_knife_40_n03041632_25022.png,5.0,2,0.1
13,1,1.2338,elephant,elephant,1111_snp_hum_0.1_elephant_40_n02504458_3953.png,5.0,3,0.1
13,2,1.1171,airplane,airplane,1111_snp_hum_0.0_airplane_40_n02690373_2435.png,5.0,3,0.0
13,3,0.9336,knife,knife,1111_snp_hum_0.0_knife_40_n03041632_3210.png,5.0,3,0.0
13,4,5.6499,knife,clock,1111_snp_hum_0.1_clock_40_n02708093_1431.png,5.0,3,0.1
13,5,3.0501,bear,bird,1111_snp_hum_0.0_bird_40_n01530575_6098.png,5.0,3,0.0
13,6,7.7662,bear,cat,1111_snp_hum_0.35_cat_40_n02123045_8774.png,5.0,3,0.35
13,7,4.7999,bear,oven,1111_snp_hum_0.35_oven_40_n04111531_7034.png,5.0,3,0.35
13,8,1.1172,bear,oven,1111_snp_hum_0.1_oven_40_n04111531_9712.png,5.0,3,0.1
13,9,2.55,bird,bird,1111_snp_hum_0.35_bird_40_n01531178_8282.png,5.0,3,0.35
13,10,6.9665,chair,keyboard,1111_snp_hum_0.35_keyboard_40_n03085013_24577.png,5.0,3,0.35
13,11,0.9337,truck,truck,1111_snp_hum_0.0_truck_40_n03417042_19905.png,5.0,3,0.0
13,12,5.3497,truck,keyboard,1111_snp_hum_0.35_keyboard_40_n03085013_6038.png,5.0,3,0.35
13,13,0.9004,airplane,airplane,1111_snp_hum_0.2_airplane_40_n02690373_6853.png,5.0,3,0.2
13,14,2.7501,airplane,bear,1111_snp_hum_0.2_bear_40_n02134418_4041.png,5.0,3,0.2
13,15,2.782,airplane,bear,1111_snp_hum_0.2_bear_40_n02132136_6787.png,5.0,3,0.2
13,16,1.067,chair,chair,1111_snp_hum_0.2_chair_40_n03376595_4469.png,5.0,3,0.2
13,17,1.0338,chair,chair,1111_snp_hum_0.2_chair_40_n04429376_18127.png,5.0,3,0.2
13,18,3.2001,airplane,keyboard,1111_snp_hum_0.1_keyboard_40_n03085013_24618.png,5.0,3,0.1
13,19,1.2837,car,car,1111_snp_hum_0.1_car_40_n04285008_3280.png,5.0,3,0.1
13,20,1.0168,cat,cat,1111_snp_hum_0.0_cat_40_n02124075_14094.png,5.0,3,0.0
13,21,0.8004,bear,bear,1111_snp_hum_0.0_bear_40_n02134084_5027.png,5.0,4,0.0
13,22,3.1833,boat,boat,1111_snp_hum_0.0_boat_40_n02951358_32429.png,5.0,4,0.0
13,23,0.6672,bicycle,bicycle,1111_snp_hum_0.1_bicycle_40_n02835271_15925.png,5.0,4,0.1
13,24,0.6838,cat,cat,1111_snp_hum_0.1_cat_40_n02124075_862.png,5.0,4,0.1
13,25,1.0005,bicycle,bicycle,1111_snp_hum_0.2_bicycle_40_n02835271_13131.png,5.0,4,0.2
13,26,0.8336,truck,truck,1111_snp_hum_0.0_truck_40_n03796401_4495.png,5.0,4,0.0
13,27,4.8332,truck,clock,1111_snp_hum_0.35_clock_40_n03196217_5252.png,5.0,4,0.35
13,28,0.5673,cat,cat,1111_snp_hum_0.2_cat_40_n02123045_2025.png,5.0,4,0.2
13,29,0.8515,truck,truck,1111_snp_hum_0.2_truck_40_n04467665_11776.png,5.0,4,0.2
13,30,1.4835,oven,oven,1111_snp_hum_0.35_oven_40_n04111531_18645.png,5.0,4,0.35
13,31,1.9169999999999998,boat,boat,1111_snp_hum_0.2_boat_40_n04612504_7166.png,5.0,4,0.2
13,32,0.7504,elephant,elephant,1111_snp_hum_0.0_elephant_40_n02504013_868.png,5.0,4,0.0
13,33,1.0339,bear,bottle,1111_snp_hum_0.35_bottle_40_n04560804_32398.png,5.0,4,0.35
13,34,8.7659,oven,airplane,1111_snp_hum_0.35_airplane_40_n02690373_2024.png,5.0,4,0.35
13,35,1.0838,car,keyboard,1111_snp_hum_0.1_keyboard_40_n04505470_1833.png,5.0,4,0.1
13,36,0.6505,car,car,1111_snp_hum_0.35_car_40_n03100240_6805.png,5.0,4,0.35
13,37,1.0170000000000001,dog,dog,1111_snp_hum_0.2_dog_40_n02101388_2075.png,5.0,4,0.2
13,38,1.6336,elephant,bottle,1111_snp_hum_0.1_bottle_40_n03983396_11337.png,5.0,4,0.1
13,39,1.3840000000000001,keyboard,keyboard,1111_snp_hum_0.0_keyboard_40_n03085013_19436.png,5.0,4,0.0
13,40,2.2837,car,bird,1111_snp_hum_0.1_bird_40_n01843383_8077.png,5.0,4,0.1
13,41,1.0002,oven,oven,1111_snp_hum_0.0_oven_40_n04111531_13247.png,5.0,1,0.0
13,42,5.7668,car,clock,1111_snp_hum_0.0_clock_40_n03196217_585.png,5.0,1,0.0
13,43,1.8501,boat,airplane,1111_snp_hum_0.1_airplane_40_n02690373_3874.png,5.0,1,0.1
13,44,1.3834,elephant,chair,1111_snp_hum_0.35_chair_40_n04099969_2267.png,5.0,1,0.35
13,45,1.2838,car,truck,1111_snp_hum_0.2_truck_40_n03796401_4309.png,5.0,1,0.2
13,46,3.8167,airplane,bottle,1111_snp_hum_0.2_bottle_40_n03937543_3759.png,5.0,1,0.2
13,47,2.3002,car,knife,1111_snp_hum_0.1_knife_40_n03041632_105081.png,5.0,1,0.1
13,48,1.7839,car,bottle,1111_snp_hum_0.35_bottle_40_n04591713_5754.png,5.0,1,0.35
13,49,11.4658,airplane,bicycle,1111_snp_hum_0.0_bicycle_40_n03792782_14216.png,5.0,1,0.0
13,50,2.5333,oven,knife,1111_snp_hum_0.0_knife_40_n03041632_24114.png,5.0,1,0.0
13,51,3.7331,oven,cat,1111_snp_hum_0.2_cat_40_n02123045_9341.png,5.0,1,0.2
13,52,5.1832,car,dog,1111_snp_hum_0.35_dog_40_n02088632_2814.png,5.0,1,0.35
13,53,1.3172,elephant,bear,1111_snp_hum_0.2_bear_40_n02132136_5184.png,5.0,1,0.2
13,54,10.0823,knife,knife,1111_snp_hum_0.2_knife_40_n03041632_32785.png,5.0,1,0.2
13,55,0.9504,truck,truck,1111_snp_hum_0.1_truck_40_n03417042_1656.png,5.0,1,0.1
13,56,3.8998,truck,bird,1111_snp_hum_0.35_bird_40_n01860187_6891.png,5.0,1,0.35
13,57,0.934,bear,bear,1111_snp_hum_0.35_bear_40_n02132136_3169.png,5.0,1,0.35
13,58,2.3501,chair,chair,1111_snp_hum_0.0_chair_40_n04429376_10128.png,5.0,1,0.0
13,59,1.6832,clock,clock,1111_snp_hum_0.1_clock_40_n03196217_8614.png,5.0,1,0.1
13,60,1.1504,car,clock,1111_snp_hum_0.1_clock_40_n03196217_5478.png,5.0,1,0.1
13,61,1.0004,dog,dog,1111_snp_hum_0.1_dog_40_n02106382_14862.png,5.0,2,0.1
13,62,0.8835,elephant,elephant,1111_snp_hum_0.1_elephant_40_n02504458_4954.png,5.0,2,0.1
13,63,2.1502,truck,bottle,1111_snp_hum_0.1_bottle_40_n04591713_6238.png,5.0,2,0.1
13,64,5.9831,bottle,oven,1111_snp_hum_0.1_oven_40_n04111531_18592.png,5.0,2,0.1
13,65,0.7002,car,car,1111_snp_hum_0.2_car_40_n04285008_9470.png,5.0,2,0.2
13,66,0.6339,elephant,elephant,1111_snp_hum_0.2_elephant_40_n02504458_1735.png,5.0,2,0.2
13,67,3.5834,bear,dog,1111_snp_hum_0.35_dog_40_n02112018_370.png,5.0,2,0.35
13,68,0.9337,elephant,elephant,1111_snp_hum_0.2_elephant_40_n02504458_1998.png,5.0,2,0.2
13,69,9.1326,bear,boat,1111_snp_hum_0.2_boat_40_n02951358_19768.png,5.0,2,0.2
13,70,0.8003,car,car,1111_snp_hum_0.0_car_40_n03100240_24331.png,5.0,2,0.0
13,71,4.433,boat,boat,1111_snp_hum_0.2_boat_40_n03344393_7433.png,5.0,2,0.2
13,72,1.2004,car,airplane,1111_snp_hum_0.35_airplane_40_n02690373_1071.png,5.0,2,0.35
13,73,1.034,car,knife,1111_snp_hum_0.1_knife_40_n03041632_25022.png,5.0,2,0.1
13,74,1.5005,bicycle,bicycle,1111_snp_hum_0.35_bicycle_40_n03792782_17337.png,5.0,2,0.35
13,75,2.3502,boat,boat,1111_snp_hum_0.35_boat_40_n02951358_34051.png,5.0,2,0.35
13,76,1.2337,elephant,bird,1111_snp_hum_0.0_bird_40_n01537544_15048.png,5.0,2,0.0
13,77,1.0841,bicycle,bicycle,1111_snp_hum_0.35_bicycle_40_n02835271_15038.png,5.0,2,0.35
13,78,0.5838,dog,dog,1111_snp_hum_0.0_dog_40_n02105056_9209.png,5.0,2,0.0
13,79,0.6837,car,car,1111_snp_hum_0.0_car_40_n02814533_32461.png,5.0,2,0.0
13,80,5.5158,chair,chair,1111_snp_hum_0.0_chair_40_n04429376_9212.png,5.0,2,0.0
13,81,7.5662,keyboard,clock,1111_snp_hum_0.0_clock_40_n03196217_6809.png,5.0,5,0.0
13,82,0.8007,bear,bear,1111_snp_hum_0.1_bear_40_n02134084_4612.png,5.0,5,0.1
13,83,2.3836,oven,bottle,1111_snp_hum_0.0_bottle_40_n04560804_13773.png,5.0,5,0.0
13,84,2.2335,car,knife,1111_snp_hum_0.2_knife_40_n03041632_47410.png,5.0,5,0.2
13,85,1.0504,bicycle,bicycle,1111_snp_hum_0.35_bicycle_40_n02835271_8273.png,5.0,5,0.35
13,86,1.8004,knife,knife,1111_snp_hum_0.35_knife_40_n03041632_11475.png,5.0,5,0.35
13,87,9.6326,knife,airplane,1111_snp_hum_0.35_airplane_40_n02690373_2070.png,5.0,5,0.35
13,88,1.1669,elephant,knife,1111_snp_hum_0.35_knife_40_n03041632_26340.png,5.0,5,0.35
13,89,2.6834,boat,boat,1111_snp_hum_0.0_boat_40_n02951358_12866.png,5.0,5,0.0
13,90,1.4002,elephant,cat,1111_snp_hum_0.2_cat_40_n02124075_20957.png,5.0,5,0.2
13,91,5.9163,car,bottle,1111_snp_hum_0.2_bottle_40_n04591713_595.png,5.0,5,0.2
13,92,6.6829,bird,oven,1111_snp_hum_0.1_oven_40_n04111531_9490.png,5.0,5,0.1
13,93,0.9337,bicycle,bicycle,1111_snp_hum_0.0_bicycle_40_n02835271_8081.png,5.0,5,0.0
13,94,4.5999,dog,bottle,1111_snp_hum_0.2_bottle_40_n04560804_12278.png,5.0,5,0.2
13,95,10.8824,car,keyboard,1111_snp_hum_0.35_keyboard_40_n03085013_2122.png,5.0,5,0.35
13,96,3.0003,oven,keyboard,1111_snp_hum_0.1_keyboard_40_n04505470_2115.png,5.0,5,0.1
13,97,0.9838,cat,dog,1111_snp_hum_0.2_dog_40_n02107142_1550.png,5.0,5,0.2
13,98,7.4665,boat,oven,1111_snp_hum_0.0_oven_40_n04111531_2930.png,5.0,5,0.0
13,99,1.1671,elephant,elephant,1111_snp_hum_0.1_elephant_40_n02504458_7408.png,5.0,5,0.1
13,100,0.6672,car,car,1111_snp_hum_0.1_car_40_n02814533_83068.png,5.0,5,0.1
13,101,3.2502,boat,chair,1111_snp_hum_0.1_chair_40_n04099969_2398.png,5.0,6,0.1
13,102,1.817,elephant,dog,1111_snp_hum_0.1_dog_40_n02102318_11816.png,5.0,6,0.1
13,103,10.9825,chair,chair,1111_snp_hum_0.0_chair_40_n04429376_42324.png,5.0,6,0.0
13,104,1.5005,elephant,oven,1111_snp_hum_0.0_oven_40_n04111531_21973.png,5.0,6,0.0
13,105,0.8006,airplane,airplane,1111_snp_hum_0.2_airplane_40_n02690373_4243.png,5.0,6,0.2
13,106,0.6672,airplane,airplane,1111_snp_hum_0.2_airplane_40_n02690373_3912.png,5.0,6,0.2
13,107,1.9503,chair,keyboard,1111_snp_hum_0.2_keyboard_40_n04505470_6272.png,5.0,6,0.2
13,108,1.2338,boat,boat,1111_snp_hum_0.0_boat_40_n02951358_15424.png,5.0,6,0.0
13,109,5.3165,cat,dog,1111_snp_hum_0.2_dog_40_n02090721_1456.png,5.0,6,0.2
13,110,0.9503,car,car,1111_snp_hum_0.35_car_40_n02814533_18458.png,5.0,6,0.35
13,111,2.2169,oven,oven,1111_snp_hum_0.0_oven_40_n04111531_23215.png,5.0,6,0.0
13,112,1.5502,keyboard,keyboard,1111_snp_hum_0.1_keyboard_40_n04505470_933.png,5.0,6,0.1
13,113,5.2329,bear,bear,1111_snp_hum_0.35_bear_40_n02133161_10314.png,5.0,6,0.35
13,114,1.1004,elephant,elephant,1111_snp_hum_0.35_elephant_40_n02504458_4.png,5.0,6,0.35
13,115,0.8671,bird,bird,1111_snp_hum_0.2_bird_40_n01532829_22520.png,5.0,6,0.2
13,116,3.4337,elephant,bear,1111_snp_hum_0.35_bear_40_n02134084_10224.png,5.0,6,0.35
13,117,6.632999999999999,car,cat,1111_snp_hum_0.35_cat_40_n02124075_8351.png,5.0,6,0.35
13,118,0.8835,bird,bird,1111_snp_hum_0.0_bird_40_n01530575_4260.png,5.0,6,0.0
13,119,0.9004,car,car,1111_snp_hum_0.1_car_40_n04285008_7096.png,5.0,6,0.1
13,120,1.5503,elephant,elephant,1111_snp_hum_0.1_elephant_40_n02504013_1916.png,5.0,6,0.1
13,121,0.9504,truck,truck,1111_snp_hum_0.1_truck_40_n03417042_12486.png,5.0,7,0.1
13,122,1.4337,car,bottle,1111_snp_hum_0.0_bottle_40_n04560804_19872.png,5.0,7,0.0
13,123,0.7673,keyboard,keyboard,1111_snp_hum_0.0_keyboard_40_n03085013_1483.png,5.0,7,0.0
13,124,3.9664,car,bird,1111_snp_hum_0.35_bird_40_n02033041_6633.png,5.0,7,0.35
13,125,0.9672,car,knife,1111_snp_hum_0.35_knife_40_n03041632_31909.png,5.0,7,0.35
13,126,0.8336,bear,bear,1111_snp_hum_0.1_bear_40_n02133161_2137.png,5.0,7,0.1
13,127,4.2665,clock,boat,1111_snp_hum_0.2_boat_40_n04612504_30742.png,5.0,7,0.2
13,128,3.5837,cat,boat,1111_snp_hum_0.35_boat_40_n02951358_31835.png,5.0,7,0.35
13,129,0.6836,elephant,elephant,1111_snp_hum_0.2_elephant_40_n02504013_6660.png,5.0,7,0.2
13,130,1.5003,elephant,bird,1111_snp_hum_0.35_bird_40_n02025239_22501.png,5.0,7,0.35
13,131,0.8339,car,car,1111_snp_hum_0.2_car_40_n02814533_82925.png,5.0,7,0.2
13,132,0.8505,dog,dog,1111_snp_hum_0.0_dog_40_n02100877_20916.png,5.0,7,0.0
13,133,4.0667,bottle,bottle,1111_snp_hum_0.0_bottle_40_n04591713_2718.png,5.0,7,0.0
13,134,1.8504,chair,clock,1111_snp_hum_0.35_clock_40_n02708093_462.png,5.0,7,0.35
13,135,1.2504,bicycle,bicycle,1111_snp_hum_0.1_bicycle_40_n03792782_3467.png,5.0,7,0.1
13,136,1.8001,cat,cat,1111_snp_hum_0.2_cat_40_n02123159_6505.png,5.0,7,0.2
13,137,2.8003,chair,chair,1111_snp_hum_0.2_chair_40_n03376595_4309.png,5.0,7,0.2
13,138,1.6504,boat,boat,1111_snp_hum_0.1_boat_40_n02951358_14612.png,5.0,7,0.1
13,139,1.6502,airplane,airplane,1111_snp_hum_0.1_airplane_40_n02690373_1277.png,5.0,7,0.1
13,140,6.3329,truck,truck,1111_snp_hum_0.0_truck_40_n03417042_11.png,5.0,7,0.0
13,141,0.8171,clock,clock,1111_snp_hum_0.1_clock_40_n03196217_3943.png,5.0,8,0.1
13,142,2.3502,bicycle,bicycle,1111_snp_hum_0.1_bicycle_40_n03792782_33855.png,5.0,8,0.1
13,143,1.0669,elephant,elephant,1111_snp_hum_0.0_elephant_40_n02504458_3140.png,5.0,8,0.0
13,144,1.5171,truck,oven,1111_snp_hum_0.2_oven_40_n04111531_326.png,5.0,8,0.2
13,145,4.05,cat,cat,1111_snp_hum_0.1_cat_40_n02124075_3533.png,5.0,8,0.1
13,146,2.1336,bear,cat,1111_snp_hum_0.35_cat_40_n02123394_2690.png,5.0,8,0.35
13,147,0.8004,car,car,1111_snp_hum_0.35_car_40_n02814533_23512.png,5.0,8,0.35
13,148,1.4169,truck,truck,1111_snp_hum_0.2_truck_40_n03796401_17504.png,5.0,8,0.2
13,149,1.3337,dog,dog,1111_snp_hum_0.0_dog_40_n02098105_1796.png,5.0,8,0.0
13,150,0.867,bicycle,bicycle,1111_snp_hum_0.2_bicycle_40_n02835271_7873.png,5.0,8,0.2
13,151,0.8666,bird,bird,1111_snp_hum_0.1_bird_40_n02027492_2004.png,5.0,8,0.1
13,152,1.5002,truck,truck,1111_snp_hum_0.1_truck_40_n03796401_14381.png,5.0,8,0.1
13,153,0.7833,chair,chair,1111_snp_hum_0.2_chair_40_n04099969_18182.png,5.0,8,0.2
13,154,3.2835,bear,chair,1111_snp_hum_0.35_chair_40_n03376595_6837.png,5.0,8,0.35
13,155,4.5999,elephant,clock,1111_snp_hum_0.35_clock_40_n04548280_3997.png,5.0,8,0.35
13,156,3.3335,elephant,bear,1111_snp_hum_0.35_bear_40_n02134418_4895.png,5.0,8,0.35
13,157,5.9496,bottle,clock,1111_snp_hum_0.2_clock_40_n04548280_2518.png,5.0,8,0.2
13,158,0.9169,truck,truck,1111_snp_hum_0.0_truck_40_n03417042_28078.png,5.0,8,0.0
13,159,1.7169999999999999,knife,knife,1111_snp_hum_0.0_knife_40_n03041632_4808.png,5.0,8,0.0
13,160,0.6171,airplane,airplane,1111_snp_hum_0.0_airplane_40_n02690373_19152.png,5.0,8,0.0
13,161,6.5829999999999975,bear,cat,1111_snp_hum_0.1_cat_40_n02124075_9716.png,5.0,9,0.1
13,162,0.9672,elephant,elephant,1111_snp_hum_0.0_elephant_40_n02504013_19694.png,5.0,9,0.0
13,163,1.0176,dog,dog,1111_snp_hum_0.0_dog_40_n02096437_6439.png,5.0,9,0.0
13,164,13.8984,oven,clock,1111_snp_hum_0.35_clock_40_n04548280_11068.png,5.0,9,0.35
13,165,0.8839,bear,bear,1111_snp_hum_0.1_bear_40_n02134084_6343.png,5.0,9,0.1
13,166,1.6669999999999998,elephant,boat,1111_snp_hum_0.35_boat_40_n02951358_34441.png,5.0,9,0.35
13,167,4.4499,oven,bottle,1111_snp_hum_0.0_bottle_40_n04591713_2024.png,5.0,9,0.0
13,168,5.233,bottle,clock,1111_snp_hum_0.2_clock_40_n04548280_8585.png,5.0,9,0.2
13,169,1.7169999999999999,dog,dog,1111_snp_hum_0.35_dog_40_n02105056_328.png,5.0,9,0.35
13,170,0.867,bear,bear,1111_snp_hum_0.2_bear_40_n02133161_1498.png,5.0,9,0.2
13,171,0.6004,airplane,airplane,1111_snp_hum_0.2_airplane_40_n02690373_14117.png,5.0,9,0.2
13,172,3.0172,bird,bird,1111_snp_hum_0.2_bird_40_n02037110_8732.png,5.0,9,0.2
13,173,2.4165,elephant,elephant,1111_snp_hum_0.35_elephant_40_n02504458_1848.png,5.0,9,0.35
13,174,2.4834,chair,keyboard,1111_snp_hum_0.2_keyboard_40_n04505470_4906.png,5.0,9,0.2
13,175,6.9165,bird,bird,1111_snp_hum_0.1_bird_40_n02009229_5962.png,5.0,9,0.1
13,176,3.5668,car,truck,1111_snp_hum_0.35_truck_40_n03417042_14000.png,5.0,9,0.35
13,177,1.9168,boat,boat,1111_snp_hum_0.1_boat_40_n02951358_2853.png,5.0,9,0.1
13,178,1.7502,oven,oven,1111_snp_hum_0.0_oven_40_n04111531_10306.png,5.0,9,0.0
13,179,5.7829999999999995,oven,keyboard,1111_snp_hum_0.0_keyboard_40_n03085013_24455.png,5.0,9,0.0
13,180,5.7665,boat,knife,1111_snp_hum_0.1_knife_40_n03041632_15444.png,5.0,9,0.1
13,181,0.95,dog,dog,1111_snp_hum_0.1_dog_40_n02108000_324.png,5.0,10,0.1
13,182,0.8837,car,car,1111_snp_hum_0.0_car_40_n04285008_2789.png,5.0,10,0.0
13,183,7.9665,truck,clock,1111_snp_hum_0.0_clock_40_n04548280_711.png,5.0,10,0.0
13,184,0.9504,clock,clock,1111_snp_hum_0.2_clock_40_n03196217_4417.png,5.0,10,0.2
13,185,3.2835,cat,cat,1111_snp_hum_0.2_cat_40_n02123159_3226.png,5.0,10,0.2
13,186,1.0837,bear,bottle,1111_snp_hum_0.2_bottle_40_n04591713_7221.png,5.0,10,0.2
13,187,13.6322,dog,truck,1111_snp_hum_0.35_truck_40_n04467665_50932.png,5.0,10,0.35
13,188,3.5668,car,chair,1111_snp_hum_0.35_chair_40_n04429376_3620.png,5.0,10,0.35
13,189,0.6671,bicycle,bicycle,1111_snp_hum_0.1_bicycle_40_n03792782_23560.png,5.0,10,0.1
13,190,5.1333,car,chair,1111_snp_hum_0.35_chair_40_n04429376_19101.png,5.0,10,0.35
13,191,0.784,truck,truck,1111_snp_hum_0.0_truck_40_n03417042_23440.png,5.0,10,0.0
13,192,3.7169,elephant,elephant,1111_snp_hum_0.2_elephant_40_n02504458_1844.png,5.0,10,0.2
13,193,1.3336,elephant,bird,1111_snp_hum_0.35_bird_40_n01537544_2772.png,5.0,10,0.35
13,194,1.3169,boat,boat,1111_snp_hum_0.0_boat_40_n02951358_5718.png,5.0,10,0.0
13,195,1.3339,boat,boat,1111_snp_hum_0.2_boat_40_n04612504_8942.png,5.0,10,0.2
13,196,3.4331,bird,bird,1111_snp_hum_0.1_bird_40_n02007558_45529.png,5.0,10,0.1
13,197,0.8002,car,car,1111_snp_hum_0.35_car_40_n03100240_6954.png,5.0,10,0.35
13,198,1.4002,truck,keyboard,1111_snp_hum_0.1_keyboard_40_n04505470_1430.png,5.0,10,0.1
13,199,0.8173,keyboard,keyboard,1111_snp_hum_0.0_keyboard_40_n03085013_25181.png,5.0,10,0.0
13,200,1.2835,car,knife,1111_snp_hum_0.1_knife_40_n03041632_24277.png,5.0,10,0.1
13,201,0.6337,bicycle,bicycle,1111_snp_hum_0.0_bicycle_40_n02835271_276.png,5.0,11,0.0
13,202,14.9652,oven,bottle,1111_snp_hum_0.0_bottle_40_n03937543_2357.png,5.0,11,0.0
13,203,1.0505,knife,knife,1111_snp_hum_0.1_knife_40_n03041632_17338.png,5.0,11,0.1
13,204,1.0503,elephant,cat,1111_snp_hum_0.35_cat_40_n02123394_2903.png,5.0,11,0.35
13,205,3.85,clock,bottle,1111_snp_hum_0.1_bottle_40_n03983396_4843.png,5.0,11,0.1
13,206,5.1498,bear,bear,1111_snp_hum_0.0_bear_40_n02134084_19407.png,5.0,11,0.0
13,207,5.0499,knife,knife,1111_snp_hum_0.2_knife_40_n03041632_83826.png,5.0,11,0.2
13,208,4.1831,car,oven,1111_snp_hum_0.2_oven_40_n04111531_9844.png,5.0,11,0.2
13,209,3.9668,elephant,oven,1111_snp_hum_0.2_oven_40_n04111531_14611.png,5.0,11,0.2
13,210,1.6169,dog,dog,1111_snp_hum_0.2_dog_40_n02097130_1834.png,5.0,11,0.2
13,211,0.7004,airplane,airplane,1111_snp_hum_0.0_airplane_40_n02690373_3993.png,5.0,11,0.0
13,212,1.0837,cat,cat,1111_snp_hum_0.0_cat_40_n02123045_964.png,5.0,11,0.0
13,213,1.3004,bicycle,bicycle,1111_snp_hum_0.2_bicycle_40_n03792782_1030.png,5.0,11,0.2
13,214,5.4663,chair,dog,1111_snp_hum_0.35_dog_40_n02110806_16707.png,5.0,11,0.35
13,215,2.1005,truck,truck,1111_snp_hum_0.35_truck_40_n03417042_16389.png,5.0,11,0.35
13,216,0.8838,bear,bear,1111_snp_hum_0.35_bear_40_n02134084_2004.png,5.0,11,0.35
13,217,0.7672,airplane,airplane,1111_snp_hum_0.35_airplane_40_n02690373_4728.png,5.0,11,0.35
13,218,1.0005,airplane,boat,1111_snp_hum_0.1_boat_40_n04273569_13091.png,5.0,11,0.1
13,219,1.3504,airplane,airplane,1111_snp_hum_0.1_airplane_40_n02690373_5870.png,5.0,11,0.1
13,220,0.9002,truck,truck,1111_snp_hum_0.1_truck_40_n03417042_12133.png,5.0,11,0.1
15,1,3.2501,car,oven,1111_snp_hum_0.1_oven_40_n04111531_9712.png,6.0,3,0.1
15,2,0.8336,truck,truck,1111_snp_hum_0.0_truck_40_n03417042_19905.png,6.0,3,0.0
15,3,5.7502,clock,keyboard,1111_snp_hum_0.1_keyboard_40_n03085013_24618.png,6.0,3,0.1
15,4,1.1504,airplane,airplane,1111_snp_hum_0.2_airplane_40_n02690373_6853.png,6.0,3,0.2
15,5,10.8659,chair,cat,1111_snp_hum_0.35_cat_40_n02123045_8774.png,6.0,3,0.35
15,6,2.1169,chair,bear,1111_snp_hum_0.2_bear_40_n02132136_6787.png,6.0,3,0.2
15,7,1.0838,chair,bear,1111_snp_hum_0.2_bear_40_n02134418_4041.png,6.0,3,0.2
15,8,2.65,keyboard,keyboard,1111_snp_hum_0.35_keyboard_40_n03085013_6038.png,6.0,3,0.35
15,9,0.8504,airplane,airplane,1111_snp_hum_0.0_airplane_40_n02690373_2435.png,6.0,3,0.0
15,10,0.7004,cat,cat,1111_snp_hum_0.0_cat_40_n02124075_14094.png,6.0,3,0.0
15,11,1.9334,car,car,1111_snp_hum_0.1_car_40_n04285008_3280.png,6.0,3,0.1
15,12,1.5172,truck,keyboard,1111_snp_hum_0.35_keyboard_40_n03085013_24577.png,6.0,3,0.35
15,13,1.4668,chair,oven,1111_snp_hum_0.35_oven_40_n04111531_7034.png,6.0,3,0.35
15,14,3.3334,chair,clock,1111_snp_hum_0.1_clock_40_n02708093_1431.png,6.0,3,0.1
15,15,1.6004,chair,chair,1111_snp_hum_0.2_chair_40_n04429376_18127.png,6.0,3,0.2
15,16,1.0668,chair,chair,1111_snp_hum_0.2_chair_40_n03376595_4469.png,6.0,3,0.2
15,17,1.4167,chair,bird,1111_snp_hum_0.35_bird_40_n01531178_8282.png,6.0,3,0.35
15,18,5.3499,bicycle,knife,1111_snp_hum_0.0_knife_40_n03041632_3210.png,6.0,3,0.0
15,19,7.5496,bear,bird,1111_snp_hum_0.0_bird_40_n01530575_6098.png,6.0,3,0.0
15,20,1.2338,elephant,elephant,1111_snp_hum_0.1_elephant_40_n02504458_3953.png,6.0,3,0.1
15,21,0.7003,bicycle,bicycle,1111_snp_hum_0.1_bicycle_40_n02835271_15925.png,6.0,4,0.1
15,22,3.7497,oven,keyboard,1111_snp_hum_0.0_keyboard_40_n03085013_19436.png,6.0,4,0.0
15,23,0.7671,truck,truck,1111_snp_hum_0.0_truck_40_n03796401_4495.png,6.0,4,0.0
15,24,2.1003,oven,oven,1111_snp_hum_0.35_oven_40_n04111531_18645.png,6.0,4,0.35
15,25,1.4837,chair,truck,1111_snp_hum_0.2_truck_40_n04467665_11776.png,6.0,4,0.2
15,26,1.1502,chair,clock,1111_snp_hum_0.35_clock_40_n03196217_5252.png,6.0,4,0.35
15,27,0.9837,bicycle,bicycle,1111_snp_hum_0.2_bicycle_40_n02835271_13131.png,6.0,4,0.2
15,28,2.2837,bicycle,airplane,1111_snp_hum_0.35_airplane_40_n02690373_2024.png,6.0,4,0.35
15,29,2.4169,bicycle,boat,1111_snp_hum_0.0_boat_40_n02951358_32429.png,6.0,4,0.0
15,30,24.2808,cat,bottle,1111_snp_hum_0.35_bottle_40_n04560804_32398.png,6.0,4,0.35
15,31,1.2003,elephant,elephant,1111_snp_hum_0.0_elephant_40_n02504013_868.png,6.0,4,0.0
15,32,0.7338,cat,cat,1111_snp_hum_0.2_cat_40_n02123045_2025.png,6.0,4,0.2
15,33,0.5505,dog,dog,1111_snp_hum_0.2_dog_40_n02101388_2075.png,6.0,4,0.2
15,34,0.7504,car,car,1111_snp_hum_0.35_car_40_n03100240_6805.png,6.0,4,0.35
15,35,3.0168,car,bottle,1111_snp_hum_0.1_bottle_40_n03983396_11337.png,6.0,4,0.1
15,36,2.0669,car,boat,1111_snp_hum_0.2_boat_40_n04612504_7166.png,6.0,4,0.2
15,37,1.1336,car,keyboard,1111_snp_hum_0.1_keyboard_40_n04505470_1833.png,6.0,4,0.1
15,38,1.1504,bicycle,bird,1111_snp_hum_0.1_bird_40_n01843383_8077.png,6.0,4,0.1
15,39,1.0834,cat,cat,1111_snp_hum_0.1_cat_40_n02124075_862.png,6.0,4,0.1
15,40,0.7671,bear,bear,1111_snp_hum_0.0_bear_40_n02134084_5027.png,6.0,4,0.0
15,41,3.2832,car,clock,1111_snp_hum_0.1_clock_40_n03196217_8614.png,6.0,1,0.1
15,42,2.8001,knife,knife,1111_snp_hum_0.0_knife_40_n03041632_24114.png,6.0,1,0.0
15,43,1.7335,car,knife,1111_snp_hum_0.1_knife_40_n03041632_105081.png,6.0,1,0.1
15,44,1.1169,bicycle,bicycle,1111_snp_hum_0.0_bicycle_40_n03792782_14216.png,6.0,1,0.0
15,45,1.5666,cat,dog,1111_snp_hum_0.35_dog_40_n02088632_2814.png,6.0,1,0.35
15,46,9.4825,oven,oven,1111_snp_hum_0.0_oven_40_n04111531_13247.png,6.0,1,0.0
15,47,1.2335,bear,bear,1111_snp_hum_0.35_bear_40_n02132136_3169.png,6.0,1,0.35
15,48,1.3337,truck,truck,1111_snp_hum_0.2_truck_40_n03796401_4309.png,6.0,1,0.2
15,49,5.1166,cat,bird,1111_snp_hum_0.35_bird_40_n01860187_6891.png,6.0,1,0.35
15,50,1.0339,bird,bottle,1111_snp_hum_0.2_bottle_40_n03937543_3759.png,6.0,1,0.2
15,51,2.2836,chair,chair,1111_snp_hum_0.0_chair_40_n04429376_10128.png,6.0,1,0.0
15,52,2.5335,chair,knife,1111_snp_hum_0.2_knife_40_n03041632_32785.png,6.0,1,0.2
15,53,1.8669,bear,bear,1111_snp_hum_0.2_bear_40_n02132136_5184.png,6.0,1,0.2
15,54,8.3162,elephant,airplane,1111_snp_hum_0.1_airplane_40_n02690373_3874.png,6.0,1,0.1
15,55,15.8987,bird,chair,1111_snp_hum_0.35_chair_40_n04099969_2267.png,6.0,1,0.35
15,56,1.4169999999999998,bear,cat,1111_snp_hum_0.2_cat_40_n02123045_9341.png,6.0,1,0.2
15,57,1.2171,bear,bottle,1111_snp_hum_0.35_bottle_40_n04591713_5754.png,6.0,1,0.35
15,58,3.7833,chair,clock,1111_snp_hum_0.1_clock_40_n03196217_5478.png,6.0,1,0.1
15,59,14.5989,bottle,clock,1111_snp_hum_0.0_clock_40_n03196217_585.png,6.0,1,0.0
15,60,5.2997,bird,truck,1111_snp_hum_0.1_truck_40_n03417042_1656.png,6.0,1,0.1
15,61,1.1671,bicycle,bird,1111_snp_hum_0.0_bird_40_n01537544_15048.png,6.0,2,0.0
15,62,0.5683,car,car,1111_snp_hum_0.0_car_40_n02814533_32461.png,6.0,2,0.0
15,63,1.75,bicycle,chair,1111_snp_hum_0.0_chair_40_n04429376_9212.png,6.0,2,0.0
15,64,0.6671,bicycle,bicycle,1111_snp_hum_0.35_bicycle_40_n02835271_15038.png,6.0,2,0.35
15,65,1.4836,elephant,elephant,1111_snp_hum_0.2_elephant_40_n02504458_1735.png,6.0,2,0.2
15,66,7.7158,elephant,boat,1111_snp_hum_0.2_boat_40_n03344393_7433.png,6.0,2,0.2
15,67,1.5502,chair,dog,1111_snp_hum_0.35_dog_40_n02112018_370.png,6.0,2,0.35
15,68,11.4656,dog,knife,1111_snp_hum_0.1_knife_40_n03041632_25022.png,6.0,2,0.1
15,69,1.7004,bicycle,boat,1111_snp_hum_0.35_boat_40_n02951358_34051.png,6.0,2,0.35
15,70,0.6837,elephant,elephant,1111_snp_hum_0.1_elephant_40_n02504458_4954.png,6.0,2,0.1
15,71,3.9167,bear,boat,1111_snp_hum_0.2_boat_40_n02951358_19768.png,6.0,2,0.2
15,72,1.4503,bicycle,bicycle,1111_snp_hum_0.35_bicycle_40_n03792782_17337.png,6.0,2,0.35
15,73,1.1501,car,car,1111_snp_hum_0.2_car_40_n04285008_9470.png,6.0,2,0.2
15,74,1.0837,dog,dog,1111_snp_hum_0.1_dog_40_n02106382_14862.png,6.0,2,0.1
15,75,0.6504,elephant,elephant,1111_snp_hum_0.2_elephant_40_n02504458_1998.png,6.0,2,0.2
15,76,0.6339,car,car,1111_snp_hum_0.0_car_40_n03100240_24331.png,6.0,2,0.0
15,77,2.7167,clock,airplane,1111_snp_hum_0.35_airplane_40_n02690373_1071.png,6.0,2,0.35
15,78,3.55,dog,bottle,1111_snp_hum_0.1_bottle_40_n04591713_6238.png,6.0,2,0.1
15,79,3.8001,cat,oven,1111_snp_hum_0.1_oven_40_n04111531_18592.png,6.0,2,0.1
15,80,0.7005,dog,dog,1111_snp_hum_0.0_dog_40_n02105056_9209.png,6.0,2,0.0
34,1,2.667,knife,knife,1111_snp_hum_0.0_knife_40_n03041632_3210.png,6.0,3,0.0
34,2,0.8177,cat,cat,1111_snp_hum_0.0_cat_40_n02124075_14094.png,6.0,3,0.0
34,3,7.1998,car,keyboard,1111_snp_hum_0.1_keyboard_40_n03085013_24618.png,6.0,3,0.1
34,4,0.8170000000000001,car,car,1111_snp_hum_0.1_car_40_n04285008_3280.png,6.0,3,0.1
34,5,1.8507,oven,chair,1111_snp_hum_0.2_chair_40_n04429376_18127.png,6.0,3,0.2
34,6,15.2153,oven,oven,1111_snp_hum_0.1_oven_40_n04111531_9712.png,6.0,3,0.1
34,7,1.4501,airplane,airplane,1111_snp_hum_0.2_airplane_40_n02690373_6853.png,6.0,3,0.2
34,8,14.6489,bottle,cat,1111_snp_hum_0.35_cat_40_n02123045_8774.png,6.0,3,0.35
34,9,13.4155,keyboard,keyboard,1111_snp_hum_0.35_keyboard_40_n03085013_6038.png,6.0,3,0.35
34,10,14.1823,oven,oven,1111_snp_hum_0.35_oven_40_n04111531_7034.png,6.0,3,0.35
34,11,1.4503,oven,keyboard,1111_snp_hum_0.35_keyboard_40_n03085013_24577.png,6.0,3,0.35
34,12,6.6498,bicycle,bear,1111_snp_hum_0.2_bear_40_n02132136_6787.png,6.0,3,0.2
34,13,1.0001,elephant,elephant,1111_snp_hum_0.1_elephant_40_n02504458_3953.png,6.0,3,0.1
34,14,1.4002,bird,bird,1111_snp_hum_0.35_bird_40_n01531178_8282.png,6.0,3,0.35
34,15,28.8299,keyboard,chair,1111_snp_hum_0.2_chair_40_n03376595_4469.png,6.0,3,0.2
34,16,6.2995,clock,bear,1111_snp_hum_0.2_bear_40_n02134418_4041.png,6.0,3,0.2
34,17,0.5672,airplane,airplane,1111_snp_hum_0.0_airplane_40_n02690373_2435.png,6.0,3,0.0
34,18,5.4164,elephant,bird,1111_snp_hum_0.0_bird_40_n01530575_6098.png,6.0,3,0.0
34,19,8.4331,bicycle,clock,1111_snp_hum_0.1_clock_40_n02708093_1431.png,6.0,3,0.1
34,20,1.9835,truck,truck,1111_snp_hum_0.0_truck_40_n03417042_19905.png,6.0,3,0.0
34,21,5.5167,cat,cat,1111_snp_hum_0.1_cat_40_n02124075_862.png,6.0,4,0.1
34,22,0.6006,bear,bear,1111_snp_hum_0.0_bear_40_n02134084_5027.png,6.0,4,0.0
34,23,2.6671,truck,bottle,1111_snp_hum_0.1_bottle_40_n03983396_11337.png,6.0,4,0.1
34,24,3.7835,bird,clock,1111_snp_hum_0.35_clock_40_n03196217_5252.png,6.0,4,0.35
34,25,0.7334,truck,truck,1111_snp_hum_0.0_truck_40_n03796401_4495.png,6.0,4,0.0
34,26,3.7332,airplane,bottle,1111_snp_hum_0.35_bottle_40_n04560804_32398.png,6.0,4,0.35
34,27,2.2171,car,keyboard,1111_snp_hum_0.1_keyboard_40_n04505470_1833.png,6.0,4,0.1
34,28,27.3633,cat,bicycle,1111_snp_hum_0.2_bicycle_40_n02835271_13131.png,6.0,4,0.2
34,29,5.9497,boat,truck,1111_snp_hum_0.2_truck_40_n04467665_11776.png,6.0,4,0.2
34,30,0.6004,dog,dog,1111_snp_hum_0.2_dog_40_n02101388_2075.png,6.0,4,0.2
34,31,1.0668,bicycle,bicycle,1111_snp_hum_0.1_bicycle_40_n02835271_15925.png,6.0,4,0.1
34,32,1.5336,car,airplane,1111_snp_hum_0.35_airplane_40_n02690373_2024.png,6.0,4,0.35
34,33,3.4668,dog,boat,1111_snp_hum_0.2_boat_40_n04612504_7166.png,6.0,4,0.2
34,34,0.5169,cat,cat,1111_snp_hum_0.2_cat_40_n02123045_2025.png,6.0,4,0.2
34,35,0.7836,elephant,elephant,1111_snp_hum_0.0_elephant_40_n02504013_868.png,6.0,4,0.0
34,36,2.2834,oven,oven,1111_snp_hum_0.35_oven_40_n04111531_18645.png,6.0,4,0.35
34,37,0.6835,car,car,1111_snp_hum_0.35_car_40_n03100240_6805.png,6.0,4,0.35
34,38,2.2505,boat,boat,1111_snp_hum_0.0_boat_40_n02951358_32429.png,6.0,4,0.0
34,39,1.6836,bird,bird,1111_snp_hum_0.1_bird_40_n01843383_8077.png,6.0,4,0.1
34,40,2.5832,keyboard,keyboard,1111_snp_hum_0.0_keyboard_40_n03085013_19436.png,6.0,4,0.0
34,41,9.8327,knife,knife,1111_snp_hum_0.0_knife_40_n03041632_24114.png,6.0,1,0.0
34,42,2.4338,car,knife,1111_snp_hum_0.1_knife_40_n03041632_105081.png,6.0,1,0.1
34,43,4.6001,keyboard,clock,1111_snp_hum_0.0_clock_40_n03196217_585.png,6.0,1,0.0
34,44,1.5837,bear,bear,1111_snp_hum_0.35_bear_40_n02132136_3169.png,6.0,1,0.35
34,45,1.3006,truck,truck,1111_snp_hum_0.2_truck_40_n03796401_4309.png,6.0,1,0.2
34,46,4.2335,boat,cat,1111_snp_hum_0.2_cat_40_n02123045_9341.png,6.0,1,0.2
34,47,5.4996,bottle,bottle,1111_snp_hum_0.2_bottle_40_n03937543_3759.png,6.0,1,0.2
34,48,4.1832,bicycle,bicycle,1111_snp_hum_0.0_bicycle_40_n03792782_14216.png,6.0,1,0.0
34,49,3.1329,oven,chair,1111_snp_hum_0.35_chair_40_n04099969_2267.png,6.0,1,0.35
34,50,1.3335,clock,clock,1111_snp_hum_0.1_clock_40_n03196217_8614.png,6.0,1,0.1
34,51,3.6998,truck,clock,1111_snp_hum_0.1_clock_40_n03196217_5478.png,6.0,1,0.1
34,52,6.1501,car,knife,1111_snp_hum_0.2_knife_40_n03041632_32785.png,6.0,1,0.2
34,53,7.8161,dog,bird,1111_snp_hum_0.35_bird_40_n01860187_6891.png,6.0,1,0.35
34,54,0.9506,bear,bear,1111_snp_hum_0.2_bear_40_n02132136_5184.png,6.0,1,0.2
34,55,1.8836,cat,dog,1111_snp_hum_0.35_dog_40_n02088632_2814.png,6.0,1,0.35
34,56,3.1333,cat,bottle,1111_snp_hum_0.35_bottle_40_n04591713_5754.png,6.0,1,0.35
34,57,1.867,oven,oven,1111_snp_hum_0.0_oven_40_n04111531_13247.png,6.0,1,0.0
34,58,2.0001,truck,truck,1111_snp_hum_0.1_truck_40_n03417042_1656.png,6.0,1,0.1
34,59,4.6501,bicycle,airplane,1111_snp_hum_0.1_airplane_40_n02690373_3874.png,6.0,1,0.1
34,60,3.2172,chair,chair,1111_snp_hum_0.0_chair_40_n04429376_10128.png,6.0,1,0.0
34,61,3.1336,knife,bottle,1111_snp_hum_0.1_bottle_40_n04591713_6238.png,6.0,2,0.1
34,62,4.2669,chair,dog,1111_snp_hum_0.1_dog_40_n02106382_14862.png,6.0,2,0.1
34,63,0.8669,car,car,1111_snp_hum_0.0_car_40_n02814533_32461.png,6.0,2,0.0
34,64,0.8674,bicycle,bicycle,1111_snp_hum_0.35_bicycle_40_n02835271_15038.png,6.0,2,0.35
34,65,2.6501,dog,dog,1111_snp_hum_0.35_dog_40_n02112018_370.png,6.0,2,0.35
34,66,1.8838,cat,boat,1111_snp_hum_0.2_boat_40_n02951358_19768.png,6.0,2,0.2
34,67,3.0667,chair,chair,1111_snp_hum_0.0_chair_40_n04429376_9212.png,6.0,2,0.0
34,68,1.8673,car,car,1111_snp_hum_0.2_car_40_n04285008_9470.png,6.0,2,0.2
34,69,1.0837,elephant,elephant,1111_snp_hum_0.1_elephant_40_n02504458_4954.png,6.0,2,0.1
34,70,3.5834,chair,boat,1111_snp_hum_0.35_boat_40_n02951358_34051.png,6.0,2,0.35
34,71,1.2006,elephant,elephant,1111_snp_hum_0.2_elephant_40_n02504458_1998.png,6.0,2,0.2
34,72,2.6839,chair,knife,1111_snp_hum_0.1_knife_40_n03041632_25022.png,6.0,2,0.1
34,73,1.1838,elephant,elephant,1111_snp_hum_0.2_elephant_40_n02504458_1735.png,6.0,2,0.2
34,74,0.9001,dog,dog,1111_snp_hum_0.0_dog_40_n02105056_9209.png,6.0,2,0.0
34,75,7.4163,dog,boat,1111_snp_hum_0.2_boat_40_n03344393_7433.png,6.0,2,0.2
34,76,6.3997,clock,airplane,1111_snp_hum_0.35_airplane_40_n02690373_1071.png,6.0,2,0.35
34,77,0.5505,bicycle,bicycle,1111_snp_hum_0.35_bicycle_40_n03792782_17337.png,6.0,2,0.35
34,78,1.6835,oven,oven,1111_snp_hum_0.1_oven_40_n04111531_18592.png,6.0,2,0.1
34,79,7.0828,bear,bird,1111_snp_hum_0.0_bird_40_n01537544_15048.png,6.0,2,0.0
34,80,0.8170000000000001,car,car,1111_snp_hum_0.0_car_40_n03100240_24331.png,6.0,2,0.0
34,81,3.4834,elephant,oven,1111_snp_hum_0.0_oven_40_n04111531_2930.png,6.0,5,0.0
34,82,3.2666,keyboard,keyboard,1111_snp_hum_0.1_keyboard_40_n04505470_2115.png,6.0,5,0.1
34,83,1.7671,elephant,elephant,1111_snp_hum_0.1_elephant_40_n02504458_7408.png,6.0,5,0.1
34,84,1.4503,bicycle,bicycle,1111_snp_hum_0.35_bicycle_40_n02835271_8273.png,6.0,5,0.35
34,85,3.5833,cat,dog,1111_snp_hum_0.2_dog_40_n02107142_1550.png,6.0,5,0.2
34,86,0.5668,car,car,1111_snp_hum_0.1_car_40_n02814533_83068.png,6.0,5,0.1
34,87,1.4505,chair,keyboard,1111_snp_hum_0.35_keyboard_40_n03085013_2122.png,6.0,5,0.35
34,88,21.5477,bottle,bottle,1111_snp_hum_0.2_bottle_40_n04560804_12278.png,6.0,5,0.2
34,89,4.6833,bird,cat,1111_snp_hum_0.2_cat_40_n02124075_20957.png,6.0,5,0.2
34,90,3.1668,bottle,bottle,1111_snp_hum_0.0_bottle_40_n04560804_13773.png,6.0,5,0.0
34,91,6.3329999999999975,bottle,knife,1111_snp_hum_0.35_knife_40_n03041632_26340.png,6.0,5,0.35
34,92,2.4503,dog,airplane,1111_snp_hum_0.35_airplane_40_n02690373_2070.png,6.0,5,0.35
34,93,0.7503,knife,knife,1111_snp_hum_0.2_knife_40_n03041632_47410.png,6.0,5,0.2
34,94,0.6671,bear,bear,1111_snp_hum_0.1_bear_40_n02134084_4612.png,6.0,5,0.1
34,95,6.3499,clock,bottle,1111_snp_hum_0.2_bottle_40_n04591713_595.png,6.0,5,0.2
34,96,4.1001,chair,boat,1111_snp_hum_0.0_boat_40_n02951358_12866.png,6.0,5,0.0
34,97,2.9169,chair,knife,1111_snp_hum_0.35_knife_40_n03041632_11475.png,6.0,5,0.35
34,98,1.5171,car,clock,1111_snp_hum_0.0_clock_40_n03196217_6809.png,6.0,5,0.0
34,99,5.3666,keyboard,oven,1111_snp_hum_0.1_oven_40_n04111531_9490.png,6.0,5,0.1
34,100,1.2007,bicycle,bicycle,1111_snp_hum_0.0_bicycle_40_n02835271_8081.png,6.0,5,0.0
34,101,1.0501,bird,bird,1111_snp_hum_0.0_bird_40_n01530575_4260.png,6.0,6,0.0
34,102,7.9496,bottle,oven,1111_snp_hum_0.0_oven_40_n04111531_23215.png,6.0,6,0.0
34,103,0.9837,elephant,elephant,1111_snp_hum_0.1_elephant_40_n02504013_1916.png,6.0,6,0.1
34,104,1.3173,airplane,airplane,1111_snp_hum_0.2_airplane_40_n02690373_4243.png,6.0,6,0.2
34,105,1.3504,keyboard,keyboard,1111_snp_hum_0.2_keyboard_40_n04505470_6272.png,6.0,6,0.2
34,106,1.8837,bear,bear,1111_snp_hum_0.35_bear_40_n02134084_10224.png,6.0,6,0.35
34,107,5.6502,cat,dog,1111_snp_hum_0.1_dog_40_n02102318_11816.png,6.0,6,0.1
34,108,5.4165,bird,bird,1111_snp_hum_0.2_bird_40_n01532829_22520.png,6.0,6,0.2
34,109,1.3002,boat,boat,1111_snp_hum_0.0_boat_40_n02951358_15424.png,6.0,6,0.0
34,110,0.8506,dog,dog,1111_snp_hum_0.2_dog_40_n02090721_1456.png,6.0,6,0.2
34,111,7.8663,bear,keyboard,1111_snp_hum_0.1_keyboard_40_n04505470_933.png,6.0,6,0.1
34,112,0.8340000000000001,car,car,1111_snp_hum_0.35_car_40_n02814533_18458.png,6.0,6,0.35
34,113,1.2502,elephant,elephant,1111_snp_hum_0.35_elephant_40_n02504458_4.png,6.0,6,0.35
34,114,1.2337,oven,oven,1111_snp_hum_0.0_oven_40_n04111531_21973.png,6.0,6,0.0
34,115,7.0659,keyboard,cat,1111_snp_hum_0.35_cat_40_n02124075_8351.png,6.0,6,0.35
34,116,3.2,boat,bear,1111_snp_hum_0.35_bear_40_n02133161_10314.png,6.0,6,0.35
34,117,1.1337,airplane,airplane,1111_snp_hum_0.2_airplane_40_n02690373_3912.png,6.0,6,0.2
34,118,7.0163,dog,chair,1111_snp_hum_0.1_chair_40_n04099969_2398.png,6.0,6,0.1
34,119,1.2168,car,car,1111_snp_hum_0.1_car_40_n04285008_7096.png,6.0,6,0.1
34,120,1.7503,truck,chair,1111_snp_hum_0.0_chair_40_n04429376_42324.png,6.0,6,0.0
34,121,0.7674,bear,bear,1111_snp_hum_0.1_bear_40_n02133161_2137.png,6.0,7,0.1
34,122,16.9983,cat,bottle,1111_snp_hum_0.0_bottle_40_n04560804_19872.png,6.0,7,0.0
34,123,0.9675,bicycle,bicycle,1111_snp_hum_0.1_bicycle_40_n03792782_3467.png,6.0,7,0.1
34,124,3.2837,boat,boat,1111_snp_hum_0.2_boat_40_n04612504_30742.png,6.0,7,0.2
34,125,1.2006,bear,cat,1111_snp_hum_0.2_cat_40_n02123159_6505.png,6.0,7,0.2
34,126,3.1004,cat,bird,1111_snp_hum_0.35_bird_40_n02025239_22501.png,6.0,7,0.35
34,127,6.8993,dog,chair,1111_snp_hum_0.2_chair_40_n03376595_4309.png,6.0,7,0.2
34,128,2.4666,bottle,knife,1111_snp_hum_0.35_knife_40_n03041632_31909.png,6.0,7,0.35
34,129,1.3505,bottle,bottle,1111_snp_hum_0.0_bottle_40_n04591713_2718.png,6.0,7,0.0
34,130,4.0665,chair,bird,1111_snp_hum_0.35_bird_40_n02033041_6633.png,6.0,7,0.35
34,131,0.8173,car,car,1111_snp_hum_0.2_car_40_n02814533_82925.png,6.0,7,0.2
34,132,0.8003,airplane,airplane,1111_snp_hum_0.1_airplane_40_n02690373_1277.png,6.0,7,0.1
34,133,1.9669,boat,boat,1111_snp_hum_0.1_boat_40_n02951358_14612.png,6.0,7,0.1
34,134,0.784,elephant,elephant,1111_snp_hum_0.2_elephant_40_n02504013_6660.png,6.0,7,0.2
34,135,4.4836,clock,boat,1111_snp_hum_0.35_boat_40_n02951358_31835.png,6.0,7,0.35
34,136,5.3835,keyboard,clock,1111_snp_hum_0.35_clock_40_n02708093_462.png,6.0,7,0.35
34,137,1.1998,truck,truck,1111_snp_hum_0.0_truck_40_n03417042_11.png,6.0,7,0.0
34,138,1.317,dog,dog,1111_snp_hum_0.0_dog_40_n02100877_20916.png,6.0,7,0.0
34,139,1.1837,keyboard,keyboard,1111_snp_hum_0.0_keyboard_40_n03085013_1483.png,6.0,7,0.0
34,140,1.3167,truck,truck,1111_snp_hum_0.1_truck_40_n03417042_12486.png,6.0,7,0.1
34,141,8.366,chair,bicycle,1111_snp_hum_0.1_bicycle_40_n03792782_33855.png,6.0,8,0.1
34,142,7.5159,bottle,knife,1111_snp_hum_0.0_knife_40_n03041632_4808.png,6.0,8,0.0
34,143,1.1837,truck,truck,1111_snp_hum_0.0_truck_40_n03417042_28078.png,6.0,8,0.0
34,144,0.8667,car,car,1111_snp_hum_0.35_car_40_n02814533_23512.png,6.0,8,0.35
34,145,2.7999,truck,truck,1111_snp_hum_0.2_truck_40_n03796401_17504.png,6.0,8,0.2
34,146,1.3339,elephant,chair,1111_snp_hum_0.35_chair_40_n03376595_6837.png,6.0,8,0.35
34,147,5.4666,cat,bicycle,1111_snp_hum_0.2_bicycle_40_n02835271_7873.png,6.0,8,0.2
34,148,4.3165,clock,clock,1111_snp_hum_0.35_clock_40_n04548280_3997.png,6.0,8,0.35
34,149,1.8005,car,truck,1111_snp_hum_0.1_truck_40_n03796401_14381.png,6.0,8,0.1
34,150,1.1169,clock,clock,1111_snp_hum_0.2_clock_40_n04548280_2518.png,6.0,8,0.2
34,151,0.6836,cat,cat,1111_snp_hum_0.1_cat_40_n02124075_3533.png,6.0,8,0.1
34,152,1.2501,dog,dog,1111_snp_hum_0.0_dog_40_n02098105_1796.png,6.0,8,0.0
34,153,0.7167,airplane,airplane,1111_snp_hum_0.0_airplane_40_n02690373_19152.png,6.0,8,0.0
34,154,2.6002,bottle,cat,1111_snp_hum_0.35_cat_40_n02123394_2690.png,6.0,8,0.35
34,155,2.3672,clock,bear,1111_snp_hum_0.35_bear_40_n02134418_4895.png,6.0,8,0.35
34,156,2.0336,oven,oven,1111_snp_hum_0.2_oven_40_n04111531_326.png,6.0,8,0.2
34,157,1.2671,chair,chair,1111_snp_hum_0.2_chair_40_n04099969_18182.png,6.0,8,0.2
34,158,0.8505,elephant,elephant,1111_snp_hum_0.0_elephant_40_n02504458_3140.png,6.0,8,0.0
34,159,3.6334,clock,clock,1111_snp_hum_0.1_clock_40_n03196217_3943.png,6.0,8,0.1
34,160,1.2503,bird,bird,1111_snp_hum_0.1_bird_40_n02027492_2004.png,6.0,8,0.1
34,161,0.5502,airplane,airplane,1111_snp_hum_0.0_airplane_40_n02690373_18693.png,6.0,12,0.0
34,162,1.8337,car,oven,1111_snp_hum_0.1_oven_40_n04111531_1229.png,6.0,12,0.1
34,163,0.9004,car,car,1111_snp_hum_0.1_car_40_n02814533_89061.png,6.0,12,0.1
34,164,4.4499,cat,clock,1111_snp_hum_0.2_clock_40_n04548280_1438.png,6.0,12,0.2
34,165,0.5837,cat,cat,1111_snp_hum_0.0_cat_40_n02123159_3330.png,6.0,12,0.0
34,166,1.1169,bird,oven,1111_snp_hum_0.35_oven_40_n04111531_1054.png,6.0,12,0.35
34,167,4.2333,oven,chair,1111_snp_hum_0.35_chair_40_n04429376_8395.png,6.0,12,0.35
34,168,0.7168,elephant,elephant,1111_snp_hum_0.2_elephant_40_n02504458_5561.png,6.0,12,0.2
34,169,2.8333,bird,knife,1111_snp_hum_0.35_knife_40_n03041632_14224.png,6.0,12,0.35
34,170,1.4673,keyboard,keyboard,1111_snp_hum_0.2_keyboard_40_n04505470_1874.png,6.0,12,0.2
34,171,1.9506,bottle,bird,1111_snp_hum_0.2_bird_40_n02007558_10725.png,6.0,12,0.2
34,172,7.2331,bottle,chair,1111_snp_hum_0.1_chair_40_n02791124_141.png,6.0,12,0.1
34,173,16.4483,chair,bicycle,1111_snp_hum_0.35_bicycle_40_n03792782_11597.png,6.0,12,0.35
34,174,0.7505,car,car,1111_snp_hum_0.2_car_40_n02814533_75974.png,6.0,12,0.2
34,175,0.8506,car,car,1111_snp_hum_0.0_car_40_n04285008_88.png,6.0,12,0.0
34,176,0.7004,bicycle,bicycle,1111_snp_hum_0.1_bicycle_40_n03792782_52601.png,6.0,12,0.1
34,177,1.9499,bird,bottle,1111_snp_hum_0.35_bottle_40_n04560804_15228.png,6.0,12,0.35
34,178,1.0673,chair,chair,1111_snp_hum_0.0_chair_40_n04099969_20900.png,6.0,12,0.0
34,179,2.5334,bear,bear,1111_snp_hum_0.0_bear_40_n02134418_832.png,6.0,12,0.0
34,180,2.7336,elephant,elephant,1111_snp_hum_0.1_elephant_40_n02504013_3141.png,6.0,12,0.1
37,1,1.1503,elephant,elephant,1111_snp_hum_0.1_elephant_40_n02504458_3953.png,6.0,3,0.1
37,2,0.6338,truck,truck,1111_snp_hum_0.0_truck_40_n03417042_19905.png,6.0,3,0.0
37,3,5.2332,knife,knife,1111_snp_hum_0.0_knife_40_n03041632_3210.png,6.0,3,0.0
37,4,0.6005,cat,cat,1111_snp_hum_0.0_cat_40_n02124075_14094.png,6.0,3,0.0
37,5,42.312,cat,cat,1111_snp_hum_0.35_cat_40_n02123045_8774.png,6.0,3,0.35
37,6,13.332,car,bear,1111_snp_hum_0.2_bear_40_n02134418_4041.png,6.0,3,0.2
37,7,18.0049,car,chair,1111_snp_hum_0.2_chair_40_n04429376_18127.png,6.0,3,0.2
37,8,0.5837,airplane,airplane,1111_snp_hum_0.0_airplane_40_n02690373_2435.png,6.0,3,0.0
37,9,1.3667,elephant,oven,1111_snp_hum_0.1_oven_40_n04111531_9712.png,6.0,3,0.1
37,10,3.5165,bear,bear,1111_snp_hum_0.2_bear_40_n02132136_6787.png,6.0,3,0.2
37,11,9.4658,car,clock,1111_snp_hum_0.1_clock_40_n02708093_1431.png,6.0,3,0.1
37,12,4.8665,oven,keyboard,1111_snp_hum_0.35_keyboard_40_n03085013_24577.png,6.0,3,0.35
37,13,8.366,keyboard,keyboard,1111_snp_hum_0.35_keyboard_40_n03085013_6038.png,6.0,3,0.35
37,14,0.8168,chair,chair,1111_snp_hum_0.2_chair_40_n03376595_4469.png,6.0,3,0.2
37,15,2.0504,elephant,oven,1111_snp_hum_0.35_oven_40_n04111531_7034.png,6.0,3,0.35
37,16,0.8334,airplane,airplane,1111_snp_hum_0.2_airplane_40_n02690373_6853.png,6.0,3,0.2
37,17,33.563,car,bird,1111_snp_hum_0.35_bird_40_n01531178_8282.png,6.0,3,0.35
37,18,1.6336,car,car,1111_snp_hum_0.1_car_40_n04285008_3280.png,6.0,3,0.1
37,19,2.8505,keyboard,keyboard,1111_snp_hum_0.1_keyboard_40_n03085013_24618.png,6.0,3,0.1
37,20,4.8501,bear,bird,1111_snp_hum_0.0_bird_40_n01530575_6098.png,6.0,3,0.0
37,21,12.399000000000001,car,keyboard,1111_snp_hum_0.0_keyboard_40_n03085013_19436.png,6.0,4,0.0
37,22,11.199000000000002,knife,bottle,1111_snp_hum_0.1_bottle_40_n03983396_11337.png,6.0,4,0.1
37,23,0.5002,elephant,elephant,1111_snp_hum_0.0_elephant_40_n02504013_868.png,6.0,4,0.0
37,24,0.5672,cat,cat,1111_snp_hum_0.2_cat_40_n02123045_2025.png,6.0,4,0.2
37,25,2.8836,oven,oven,1111_snp_hum_0.35_oven_40_n04111531_18645.png,6.0,4,0.35
37,26,4.8163,elephant,bird,1111_snp_hum_0.1_bird_40_n01843383_8077.png,6.0,4,0.1
37,27,1.817,dog,dog,1111_snp_hum_0.2_dog_40_n02101388_2075.png,6.0,4,0.2
37,28,4.5166,truck,truck,1111_snp_hum_0.2_truck_40_n04467665_11776.png,6.0,4,0.2
37,29,1.5508,truck,truck,1111_snp_hum_0.0_truck_40_n03796401_4495.png,6.0,4,0.0
37,30,0.6836,bicycle,bicycle,1111_snp_hum_0.1_bicycle_40_n02835271_15925.png,6.0,4,0.1
37,31,1.5506,bicycle,bicycle,1111_snp_hum_0.2_bicycle_40_n02835271_13131.png,6.0,4,0.2
37,32,3.1666,boat,boat,1111_snp_hum_0.2_boat_40_n04612504_7166.png,6.0,4,0.2
37,33,27.2302,car,clock,1111_snp_hum_0.35_clock_40_n03196217_5252.png,6.0,4,0.35
37,34,0.6673,car,car,1111_snp_hum_0.35_car_40_n03100240_6805.png,6.0,4,0.35
37,35,1.6834,elephant,bottle,1111_snp_hum_0.35_bottle_40_n04560804_32398.png,6.0,4,0.35
37,36,8.1162,car,keyboard,1111_snp_hum_0.1_keyboard_40_n04505470_1833.png,6.0,4,0.1
37,37,7.9159,boat,airplane,1111_snp_hum_0.35_airplane_40_n02690373_2024.png,6.0,4,0.35
37,38,0.7672,bear,bear,1111_snp_hum_0.0_bear_40_n02134084_5027.png,6.0,4,0.0
37,39,0.7669,cat,cat,1111_snp_hum_0.1_cat_40_n02124075_862.png,6.0,4,0.1
37,40,8.982999999999997,boat,boat,1111_snp_hum_0.0_boat_40_n02951358_32429.png,6.0,4,0.0
53,1,1.5338,car,knife,1111_snp_hum_0.1_knife_40_n03041632_105081.png,5.0,1,0.1
53,2,4.2667,truck,truck,1111_snp_hum_0.1_truck_40_n03417042_1656.png,5.0,1,0.1
53,3,4.1501,bicycle,bicycle,1111_snp_hum_0.0_bicycle_40_n03792782_14216.png,5.0,1,0.0
53,4,2.6336,truck,truck,1111_snp_hum_0.2_truck_40_n03796401_4309.png,5.0,1,0.2
53,5,1.8505,car,cat,1111_snp_hum_0.2_cat_40_n02123045_9341.png,5.0,1,0.2
53,6,2.0996,boat,knife,1111_snp_hum_0.2_knife_40_n03041632_32785.png,5.0,1,0.2
53,7,10.4159,cat,chair,1111_snp_hum_0.0_chair_40_n04429376_10128.png,5.0,1,0.0
53,8,4.7668,chair,clock,1111_snp_hum_0.0_clock_40_n03196217_585.png,5.0,1,0.0
53,9,4.85,car,dog,1111_snp_hum_0.35_dog_40_n02088632_2814.png,5.0,1,0.35
53,10,3.1002,bottle,bird,1111_snp_hum_0.35_bird_40_n01860187_6891.png,5.0,1,0.35
53,11,5.6331,clock,clock,1111_snp_hum_0.1_clock_40_n03196217_5478.png,5.0,1,0.1
53,12,3.6169,keyboard,bottle,1111_snp_hum_0.35_bottle_40_n04591713_5754.png,5.0,1,0.35
53,13,5.1003,chair,airplane,1111_snp_hum_0.1_airplane_40_n02690373_3874.png,5.0,1,0.1
53,14,2.1332,airplane,bottle,1111_snp_hum_0.2_bottle_40_n03937543_3759.png,5.0,1,0.2
53,15,2.1669,bicycle,chair,1111_snp_hum_0.35_chair_40_n04099969_2267.png,5.0,1,0.35
53,16,3.1997,knife,bear,1111_snp_hum_0.2_bear_40_n02132136_5184.png,5.0,1,0.2
53,17,5.3,bear,bear,1111_snp_hum_0.35_bear_40_n02132136_3169.png,5.0,1,0.35
53,18,2.3336,bird,oven,1111_snp_hum_0.0_oven_40_n04111531_13247.png,5.0,1,0.0
53,19,3.4001,dog,knife,1111_snp_hum_0.0_knife_40_n03041632_24114.png,5.0,1,0.0
53,20,8.3993,oven,clock,1111_snp_hum_0.1_clock_40_n03196217_8614.png,5.0,1,0.1
53,21,0.6837,elephant,elephant,1111_snp_hum_0.1_elephant_40_n02504458_4954.png,5.0,2,0.1
53,22,3.3,chair,chair,1111_snp_hum_0.0_chair_40_n04429376_9212.png,5.0,2,0.0
53,23,1.8168,clock,bird,1111_snp_hum_0.0_bird_40_n01537544_15048.png,5.0,2,0.0
53,24,1.6006,cat,bottle,1111_snp_hum_0.1_bottle_40_n04591713_6238.png,5.0,2,0.1
53,25,1.9669,dog,bicycle,1111_snp_hum_0.35_bicycle_40_n03792782_17337.png,5.0,2,0.35
53,26,1.4335,bird,car,1111_snp_hum_0.2_car_40_n04285008_9470.png,5.0,2,0.2
53,27,1.2836,bear,elephant,1111_snp_hum_0.2_elephant_40_n02504458_1735.png,5.0,2,0.2
53,28,3.0499,airplane,boat,1111_snp_hum_0.2_boat_40_n03344393_7433.png,5.0,2,0.2
53,29,1.7669,knife,dog,1111_snp_hum_0.35_dog_40_n02112018_370.png,5.0,2,0.35
53,30,2.4001,bicycle,boat,1111_snp_hum_0.35_boat_40_n02951358_34051.png,5.0,2,0.35
53,31,2.55,truck,boat,1111_snp_hum_0.2_boat_40_n02951358_19768.png,5.0,2,0.2
53,32,2.0168,car,bicycle,1111_snp_hum_0.35_bicycle_40_n02835271_15038.png,5.0,2,0.35
53,33,3.3502,bear,car,1111_snp_hum_0.0_car_40_n03100240_24331.png,5.0,2,0.0
53,34,4.4499,elephant,dog,1111_snp_hum_0.0_dog_40_n02105056_9209.png,5.0,2,0.0
53,35,2.3831,clock,elephant,1111_snp_hum_0.2_elephant_40_n02504458_1998.png,5.0,2,0.2
53,36,6.2664,oven,oven,1111_snp_hum_0.1_oven_40_n04111531_18592.png,5.0,2,0.1
53,37,1.2336,chair,airplane,1111_snp_hum_0.35_airplane_40_n02690373_1071.png,5.0,2,0.35
53,38,2.4836,car,car,1111_snp_hum_0.0_car_40_n02814533_32461.png,5.0,2,0.0
53,39,1.5338,truck,dog,1111_snp_hum_0.1_dog_40_n02106382_14862.png,5.0,2,0.1
53,40,2.9501,boat,knife,1111_snp_hum_0.1_knife_40_n03041632_25022.png,5.0,2,0.1
53,41,1.5004,cat,elephant,1111_snp_hum_0.1_elephant_40_n02504458_3953.png,5.0,3,0.1
53,42,2.5,bird,oven,1111_snp_hum_0.1_oven_40_n04111531_9712.png,5.0,3,0.1
53,43,0.9505,dog,knife,1111_snp_hum_0.0_knife_40_n03041632_3210.png,5.0,3,0.0
53,44,1.2508,elephant,bear,1111_snp_hum_0.2_bear_40_n02132136_6787.png,5.0,3,0.2
53,45,3.033,airplane,airplane,1111_snp_hum_0.2_airplane_40_n02690373_6853.png,5.0,3,0.2
53,46,2.4838,bear,chair,1111_snp_hum_0.2_chair_40_n04429376_18127.png,5.0,3,0.2
53,47,1.0505,car,cat,1111_snp_hum_0.35_cat_40_n02123045_8774.png,5.0,3,0.35
53,48,5.9826,bottle,bear,1111_snp_hum_0.2_bear_40_n02134418_4041.png,5.0,3,0.2
53,49,2.8332,oven,bird,1111_snp_hum_0.35_bird_40_n01531178_8282.png,5.0,3,0.35
53,50,1.2166,chair,keyboard,1111_snp_hum_0.35_keyboard_40_n03085013_24577.png,5.0,3,0.35
53,51,2.8002,clock,keyboard,1111_snp_hum_0.35_keyboard_40_n03085013_6038.png,5.0,3,0.35
53,52,1.6669,bicycle,chair,1111_snp_hum_0.2_chair_40_n03376595_4469.png,5.0,3,0.2
53,53,0.9503,knife,oven,1111_snp_hum_0.35_oven_40_n04111531_7034.png,5.0,3,0.35
53,54,2.2667,airplane,airplane,1111_snp_hum_0.0_airplane_40_n02690373_2435.png,5.0,3,0.0
53,55,1.5501,cat,cat,1111_snp_hum_0.0_cat_40_n02124075_14094.png,5.0,3,0.0
53,56,2.2667,keyboard,bird,1111_snp_hum_0.0_bird_40_n01530575_6098.png,5.0,3,0.0
53,57,1.5501,truck,truck,1111_snp_hum_0.0_truck_40_n03417042_19905.png,5.0,3,0.0
53,58,1.8171,elephant,car,1111_snp_hum_0.1_car_40_n04285008_3280.png,5.0,3,0.1
53,59,3.3167,dog,clock,1111_snp_hum_0.1_clock_40_n02708093_1431.png,5.0,3,0.1
53,60,1.6668,car,keyboard,1111_snp_hum_0.1_keyboard_40_n03085013_24618.png,5.0,3,0.1
53,61,2.1169,dog,bird,1111_snp_hum_0.1_bird_40_n01843383_8077.png,5.0,4,0.1
53,62,1.7003,cat,cat,1111_snp_hum_0.1_cat_40_n02124075_862.png,5.0,4,0.1
53,63,1.1506,elephant,elephant,1111_snp_hum_0.0_elephant_40_n02504013_868.png,5.0,4,0.0
53,64,3.4,knife,oven,1111_snp_hum_0.35_oven_40_n04111531_18645.png,5.0,4,0.35
53,65,1.0169,dog,dog,1111_snp_hum_0.2_dog_40_n02101388_2075.png,5.0,4,0.2
53,66,2.8502,car,bottle,1111_snp_hum_0.1_bottle_40_n03983396_11337.png,5.0,4,0.1
53,67,2.0506,dog,truck,1111_snp_hum_0.0_truck_40_n03796401_4495.png,5.0,4,0.0
53,68,5.9328,elephant,bear,1111_snp_hum_0.0_bear_40_n02134084_5027.png,5.0,4,0.0
53,69,1.5338,car,car,1111_snp_hum_0.35_car_40_n03100240_6805.png,5.0,4,0.35
53,70,2.55,bear,bicycle,1111_snp_hum_0.2_bicycle_40_n02835271_13131.png,5.0,4,0.2
53,71,3.4328,boat,keyboard,1111_snp_hum_0.0_keyboard_40_n03085013_19436.png,5.0,4,0.0
53,72,1.9002,bottle,boat,1111_snp_hum_0.2_boat_40_n04612504_7166.png,5.0,4,0.2
53,73,1.8339,chair,truck,1111_snp_hum_0.2_truck_40_n04467665_11776.png,5.0,4,0.2
53,74,2.4836,oven,clock,1111_snp_hum_0.35_clock_40_n03196217_5252.png,5.0,4,0.35
53,75,1.6669,cat,cat,1111_snp_hum_0.2_cat_40_n02123045_2025.png,5.0,4,0.2
53,76,2.8837,car,airplane,1111_snp_hum_0.35_airplane_40_n02690373_2024.png,5.0,4,0.35
53,77,2.1503,truck,bottle,1111_snp_hum_0.35_bottle_40_n04560804_32398.png,5.0,4,0.35
53,78,5.2667,clock,boat,1111_snp_hum_0.0_boat_40_n02951358_32429.png,5.0,4,0.0
53,79,3.5499,airplane,keyboard,1111_snp_hum_0.1_keyboard_40_n04505470_1833.png,5.0,4,0.1
53,80,1.75,bicycle,bicycle,1111_snp_hum_0.1_bicycle_40_n02835271_15925.png,5.0,4,0.1
53,81,3.1834,oven,bottle,1111_snp_hum_0.0_bottle_40_n04560804_13773.png,5.0,5,0.0
53,82,3.0344,chair,clock,1111_snp_hum_0.0_clock_40_n03196217_6809.png,5.0,5,0.0
53,83,2.9169,bicycle,bicycle,1111_snp_hum_0.0_bicycle_40_n02835271_8081.png,5.0,5,0.0
53,84,3.8501,car,bottle,1111_snp_hum_0.2_bottle_40_n04591713_595.png,5.0,5,0.2
53,85,3.9,cat,keyboard,1111_snp_hum_0.35_keyboard_40_n03085013_2122.png,5.0,5,0.35
53,86,2.1169,knife,knife,1111_snp_hum_0.2_knife_40_n03041632_47410.png,5.0,5,0.2
53,87,2.1169,cat,cat,1111_snp_hum_0.2_cat_40_n02124075_20957.png,5.0,5,0.2
53,88,3.4837,bicycle,airplane,1111_snp_hum_0.35_airplane_40_n02690373_2070.png,5.0,5,0.35
53,89,8.0662,truck,bicycle,1111_snp_hum_0.35_bicycle_40_n02835271_8273.png,5.0,5,0.35
53,90,3.5,dog,oven,1111_snp_hum_0.1_oven_40_n04111531_9490.png,5.0,5,0.1
53,91,2.0503,elephant,knife,1111_snp_hum_0.35_knife_40_n03041632_26340.png,5.0,5,0.35
53,92,2.9837,keyboard,bottle,1111_snp_hum_0.2_bottle_40_n04560804_12278.png,5.0,5,0.2
53,93,6.1663,bird,knife,1111_snp_hum_0.35_knife_40_n03041632_11475.png,5.0,5,0.35
53,94,2.1168,car,car,1111_snp_hum_0.1_car_40_n02814533_83068.png,5.0,5,0.1
53,95,4.1829,boat,boat,1111_snp_hum_0.0_boat_40_n02951358_12866.png,5.0,5,0.0
53,96,1.1506,dog,dog,1111_snp_hum_0.2_dog_40_n02107142_1550.png,5.0,5,0.2
53,97,1.7671,boat,oven,1111_snp_hum_0.0_oven_40_n04111531_2930.png,5.0,5,0.0
53,98,1.2337,boat,keyboard,1111_snp_hum_0.1_keyboard_40_n04505470_2115.png,5.0,5,0.1
53,99,2.4003,car,bear,1111_snp_hum_0.1_bear_40_n02134084_4612.png,5.0,5,0.1
53,100,3.1832,elephant,elephant,1111_snp_hum_0.1_elephant_40_n02504458_7408.png,5.0,5,0.1
53,101,4.7664,elephant,boat,1111_snp_hum_0.0_boat_40_n02951358_15424.png,5.0,6,0.0
53,102,10.8658,bottle,car,1111_snp_hum_0.1_car_40_n04285008_7096.png,5.0,6,0.1
53,103,2.4337,dog,keyboard,1111_snp_hum_0.1_keyboard_40_n04505470_933.png,5.0,6,0.1
53,104,1.0673,elephant,elephant,1111_snp_hum_0.1_elephant_40_n02504013_1916.png,5.0,6,0.1
53,105,0.8838,airplane,airplane,1111_snp_hum_0.2_airplane_40_n02690373_4243.png,5.0,6,0.2
53,106,0.9168,airplane,airplane,1111_snp_hum_0.2_airplane_40_n02690373_3912.png,5.0,6,0.2
53,107,0.9334,dog,dog,1111_snp_hum_0.2_dog_40_n02090721_1456.png,5.0,6,0.2
53,108,1.6005,bird,cat,1111_snp_hum_0.35_cat_40_n02124075_8351.png,5.0,6,0.35
53,109,1.567,car,keyboard,1111_snp_hum_0.2_keyboard_40_n04505470_6272.png,5.0,6,0.2
53,110,1.0838,car,car,1111_snp_hum_0.35_car_40_n02814533_18458.png,5.0,6,0.35
53,111,1.1335,elephant,elephant,1111_snp_hum_0.35_elephant_40_n02504458_4.png,5.0,6,0.35
53,112,2.0,dog,bear,1111_snp_hum_0.35_bear_40_n02133161_10314.png,5.0,6,0.35
53,113,3.7162,bear,bird,1111_snp_hum_0.0_bird_40_n01530575_4260.png,5.0,6,0.0
53,114,4.8164,cat,bear,1111_snp_hum_0.35_bear_40_n02134084_10224.png,5.0,6,0.35
53,115,12.4657,bird,bird,1111_snp_hum_0.2_bird_40_n01532829_22520.png,5.0,6,0.2
53,116,3.4667,bear,chair,1111_snp_hum_0.0_chair_40_n04429376_42324.png,5.0,6,0.0
53,117,1.6001,bottle,dog,1111_snp_hum_0.1_dog_40_n02102318_11816.png,5.0,6,0.1
53,118,1.3669,dog,chair,1111_snp_hum_0.1_chair_40_n04099969_2398.png,5.0,6,0.1
53,119,3.0837,clock,oven,1111_snp_hum_0.0_oven_40_n04111531_21973.png,5.0,6,0.0
53,120,2.4669,oven,oven,1111_snp_hum_0.0_oven_40_n04111531_23215.png,5.0,6,0.0
57,1,13.9321,bottle,airplane,1111_snp_hum_0.1_airplane_40_n02690373_3874.png,5.0,1,0.1
57,2,15.3651,car,clock,1111_snp_hum_0.1_clock_40_n03196217_5478.png,5.0,1,0.1
57,3,1.817,oven,oven,1111_snp_hum_0.0_oven_40_n04111531_13247.png,5.0,1,0.0
57,4,0.9669,bear,bear,1111_snp_hum_0.35_bear_40_n02132136_3169.png,5.0,1,0.35
57,5,9.0159,elephant,cat,1111_snp_hum_0.2_cat_40_n02123045_9341.png,5.0,1,0.2
57,6,1.2338,bear,bear,1111_snp_hum_0.2_bear_40_n02132136_5184.png,5.0,1,0.2
57,7,43.2949,cat,bottle,1111_snp_hum_0.35_bottle_40_n04591713_5754.png,5.0,1,0.35
57,8,25.4973,keyboard,clock,1111_snp_hum_0.0_clock_40_n03196217_585.png,5.0,1,0.0
57,9,2.7333,car,bottle,1111_snp_hum_0.2_bottle_40_n03937543_3759.png,5.0,1,0.2
57,10,7.7994,oven,chair,1111_snp_hum_0.35_chair_40_n04099969_2267.png,5.0,1,0.35
57,11,2.1667,chair,chair,1111_snp_hum_0.0_chair_40_n04429376_10128.png,5.0,1,0.0
57,12,2.3668,truck,truck,1111_snp_hum_0.1_truck_40_n03417042_1656.png,5.0,1,0.1
57,13,17.9486,bicycle,bicycle,1111_snp_hum_0.0_bicycle_40_n03792782_14216.png,5.0,1,0.0
57,14,11.4156,keyboard,truck,1111_snp_hum_0.2_truck_40_n03796401_4309.png,5.0,1,0.2
57,15,2.2832,car,bird,1111_snp_hum_0.35_bird_40_n01860187_6891.png,5.0,1,0.35
57,16,6.1831,knife,knife,1111_snp_hum_0.2_knife_40_n03041632_32785.png,5.0,1,0.2
57,17,20.4978,boat,dog,1111_snp_hum_0.35_dog_40_n02088632_2814.png,5.0,1,0.35
57,18,5.733,oven,knife,1111_snp_hum_0.0_knife_40_n03041632_24114.png,5.0,1,0.0
57,19,19.3479,cat,clock,1111_snp_hum_0.1_clock_40_n03196217_8614.png,5.0,1,0.1
57,20,23.7805,boat,knife,1111_snp_hum_0.1_knife_40_n03041632_105081.png,5.0,1,0.1
57,21,0.6005,car,car,1111_snp_hum_0.0_car_40_n03100240_24331.png,5.0,2,0.0
57,22,5.2829,oven,dog,1111_snp_hum_0.1_dog_40_n02106382_14862.png,5.0,2,0.1
57,23,5.7332,chair,chair,1111_snp_hum_0.0_chair_40_n04429376_9212.png,5.0,2,0.0
57,24,24.6473,keyboard,airplane,1111_snp_hum_0.35_airplane_40_n02690373_1071.png,5.0,2,0.35
57,25,6.3832,boat,boat,1111_snp_hum_0.2_boat_40_n03344393_7433.png,5.0,2,0.2
57,26,4.2667,dog,dog,1111_snp_hum_0.0_dog_40_n02105056_9209.png,5.0,2,0.0
57,27,15.3483,boat,bottle,1111_snp_hum_0.1_bottle_40_n04591713_6238.png,5.0,2,0.1
57,28,7.816,oven,dog,1111_snp_hum_0.35_dog_40_n02112018_370.png,5.0,2,0.35
57,29,5.1001,oven,bicycle,1111_snp_hum_0.35_bicycle_40_n02835271_15038.png,5.0,2,0.35
57,30,1.9004,elephant,bicycle,1111_snp_hum_0.35_bicycle_40_n03792782_17337.png,5.0,2,0.35
57,31,0.7165,elephant,elephant,1111_snp_hum_0.2_elephant_40_n02504458_1735.png,5.0,2,0.2
57,32,1.7169999999999999,truck,boat,1111_snp_hum_0.2_boat_40_n02951358_19768.png,5.0,2,0.2
57,33,0.7668,car,car,1111_snp_hum_0.2_car_40_n04285008_9470.png,5.0,2,0.2
57,34,8.616,clock,knife,1111_snp_hum_0.1_knife_40_n03041632_25022.png,5.0,2,0.1
57,35,0.8339,elephant,elephant,1111_snp_hum_0.2_elephant_40_n02504458_1998.png,5.0,2,0.2
57,36,6.2332,bicycle,boat,1111_snp_hum_0.35_boat_40_n02951358_34051.png,5.0,2,0.35
57,37,0.5670000000000001,elephant,elephant,1111_snp_hum_0.1_elephant_40_n02504458_4954.png,5.0,2,0.1
57,38,0.4674,car,car,1111_snp_hum_0.0_car_40_n02814533_32461.png,5.0,2,0.0
57,39,2.533,elephant,oven,1111_snp_hum_0.1_oven_40_n04111531_18592.png,5.0,2,0.1
57,40,1.7336,elephant,bird,1111_snp_hum_0.0_bird_40_n01537544_15048.png,5.0,2,0.0
66,1,9.1993,car,keyboard,1111_snp_hum_0.1_keyboard_40_n03085013_24618.png,5.0,3,0.1
66,2,1.1667,elephant,elephant,1111_snp_hum_0.1_elephant_40_n02504458_3953.png,5.0,3,0.1
66,3,0.9837,cat,cat,1111_snp_hum_0.0_cat_40_n02124075_14094.png,5.0,3,0.0
66,4,6.7995,elephant,oven,1111_snp_hum_0.1_oven_40_n04111531_9712.png,5.0,3,0.1
66,5,1.0668,airplane,airplane,1111_snp_hum_0.0_airplane_40_n02690373_2435.png,5.0,3,0.0
66,6,14.932,elephant,bear,1111_snp_hum_0.2_bear_40_n02134418_4041.png,5.0,3,0.2
66,7,7.5994,bird,cat,1111_snp_hum_0.35_cat_40_n02123045_8774.png,5.0,3,0.35
66,8,20.2814,car,bear,1111_snp_hum_0.2_bear_40_n02132136_6787.png,5.0,3,0.2
66,9,1.2171,bird,bird,1111_snp_hum_0.35_bird_40_n01531178_8282.png,5.0,3,0.35
66,10,0.8004,airplane,airplane,1111_snp_hum_0.2_airplane_40_n02690373_6853.png,5.0,3,0.2
66,11,3.9667,car,clock,1111_snp_hum_0.1_clock_40_n02708093_1431.png,5.0,3,0.1
66,12,1.0171,knife,knife,1111_snp_hum_0.0_knife_40_n03041632_3210.png,5.0,3,0.0
66,13,1.3838,car,chair,1111_snp_hum_0.2_chair_40_n04429376_18127.png,5.0,3,0.2
66,14,2.7164,knife,keyboard,1111_snp_hum_0.35_keyboard_40_n03085013_6038.png,5.0,3,0.35
66,15,2.5169,keyboard,keyboard,1111_snp_hum_0.35_keyboard_40_n03085013_24577.png,5.0,3,0.35
66,16,2.0501,bird,oven,1111_snp_hum_0.35_oven_40_n04111531_7034.png,5.0,3,0.35
66,17,27.5469,car,chair,1111_snp_hum_0.2_chair_40_n03376595_4469.png,5.0,3,0.2
66,18,0.7838,truck,truck,1111_snp_hum_0.0_truck_40_n03417042_19905.png,5.0,3,0.0
66,19,0.7003,car,car,1111_snp_hum_0.1_car_40_n04285008_3280.png,5.0,3,0.1
66,20,0.9006,bird,bird,1111_snp_hum_0.0_bird_40_n01530575_6098.png,5.0,3,0.0
66,21,0.4338,elephant,elephant,1111_snp_hum_0.0_elephant_40_n02504013_868.png,5.0,4,0.0
66,22,1.4171,bear,bear,1111_snp_hum_0.0_bear_40_n02134084_5027.png,5.0,4,0.0
66,23,1.4339,truck,bottle,1111_snp_hum_0.1_bottle_40_n03983396_11337.png,5.0,4,0.1
66,24,1.4502,truck,bird,1111_snp_hum_0.1_bird_40_n01843383_8077.png,5.0,4,0.1
66,25,2.0834,car,airplane,1111_snp_hum_0.35_airplane_40_n02690373_2024.png,5.0,4,0.35
66,26,0.7837,bicycle,bicycle,1111_snp_hum_0.2_bicycle_40_n02835271_13131.png,5.0,4,0.2
66,27,3.5333,keyboard,oven,1111_snp_hum_0.35_oven_40_n04111531_18645.png,5.0,4,0.35
66,28,0.7003,truck,truck,1111_snp_hum_0.0_truck_40_n03796401_4495.png,5.0,4,0.0
66,29,0.8671,truck,truck,1111_snp_hum_0.2_truck_40_n04467665_11776.png,5.0,4,0.2
66,30,1.6003,cat,clock,1111_snp_hum_0.35_clock_40_n03196217_5252.png,5.0,4,0.35
66,31,1.4501,car,bottle,1111_snp_hum_0.35_bottle_40_n04560804_32398.png,5.0,4,0.35
66,32,7.5998,car,boat,1111_snp_hum_0.2_boat_40_n04612504_7166.png,5.0,4,0.2
66,33,0.5008,bicycle,bicycle,1111_snp_hum_0.1_bicycle_40_n02835271_15925.png,5.0,4,0.1
66,34,0.4838,dog,dog,1111_snp_hum_0.2_dog_40_n02101388_2075.png,5.0,4,0.2
66,35,0.8672,cat,cat,1111_snp_hum_0.2_cat_40_n02123045_2025.png,5.0,4,0.2
66,36,0.4171,car,car,1111_snp_hum_0.35_car_40_n03100240_6805.png,5.0,4,0.35
66,37,2.1008,car,keyboard,1111_snp_hum_0.0_keyboard_40_n03085013_19436.png,5.0,4,0.0
66,38,12.9988,knife,keyboard,1111_snp_hum_0.1_keyboard_40_n04505470_1833.png,5.0,4,0.1
66,39,8.316,boat,boat,1111_snp_hum_0.0_boat_40_n02951358_32429.png,5.0,4,0.0
66,40,0.667,cat,cat,1111_snp_hum_0.1_cat_40_n02124075_862.png,5.0,4,0.1
66,41,0.9673,truck,clock,1111_snp_hum_0.1_clock_40_n03196217_5478.png,5.0,1,0.1
66,42,3.0669999999999997,car,airplane,1111_snp_hum_0.1_airplane_40_n02690373_3874.png,5.0,1,0.1
66,43,1.4332,truck,truck,1111_snp_hum_0.1_truck_40_n03417042_1656.png,5.0,1,0.1
66,44,2.85,car,cat,1111_snp_hum_0.2_cat_40_n02123045_9341.png,5.0,1,0.2
66,45,2.5832,airplane,bird,1111_snp_hum_0.35_bird_40_n01860187_6891.png,5.0,1,0.35
66,46,0.8170000000000001,truck,truck,1111_snp_hum_0.2_truck_40_n03796401_4309.png,5.0,1,0.2
66,47,1.2838,cat,dog,1111_snp_hum_0.35_dog_40_n02088632_2814.png,5.0,1,0.35
66,48,11.8323,clock,bottle,1111_snp_hum_0.2_bottle_40_n03937543_3759.png,5.0,1,0.2
66,49,0.9505,bird,bear,1111_snp_hum_0.2_bear_40_n02132136_5184.png,5.0,1,0.2
66,50,1.2503,dog,bear,1111_snp_hum_0.35_bear_40_n02132136_3169.png,5.0,1,0.35
66,51,1.3669,bicycle,bicycle,1111_snp_hum_0.0_bicycle_40_n03792782_14216.png,5.0,1,0.0
66,52,11.2494,chair,chair,1111_snp_hum_0.0_chair_40_n04429376_10128.png,5.0,1,0.0
66,53,1.4172,truck,chair,1111_snp_hum_0.35_chair_40_n04099969_2267.png,5.0,1,0.35
66,54,1.0835,truck,knife,1111_snp_hum_0.2_knife_40_n03041632_32785.png,5.0,1,0.2
66,55,0.8337,truck,bottle,1111_snp_hum_0.35_bottle_40_n04591713_5754.png,5.0,1,0.35
66,56,28.6303,knife,knife,1111_snp_hum_0.0_knife_40_n03041632_24114.png,5.0,1,0.0
66,57,2.4166,bicycle,knife,1111_snp_hum_0.1_knife_40_n03041632_105081.png,5.0,1,0.1
66,58,1.7004,oven,oven,1111_snp_hum_0.0_oven_40_n04111531_13247.png,5.0,1,0.0
66,59,1.3504,clock,clock,1111_snp_hum_0.1_clock_40_n03196217_8614.png,5.0,1,0.1
66,60,4.2665,truck,clock,1111_snp_hum_0.0_clock_40_n03196217_585.png,5.0,1,0.0
87,1,1.1669,car,car,1111_snp_hum_0.0_car_40_n03100240_24331.png,5.0,2,0.0
87,2,27.6966,bicycle,dog,1111_snp_hum_0.1_dog_40_n02106382_14862.png,5.0,2,0.1
87,3,1.6502,bicycle,bottle,1111_snp_hum_0.1_bottle_40_n04591713_6238.png,5.0,2,0.1
87,4,3.2172,airplane,boat,1111_snp_hum_0.2_boat_40_n02951358_19768.png,5.0,2,0.2
87,5,4.1997,bicycle,bicycle,1111_snp_hum_0.35_bicycle_40_n03792782_17337.png,5.0,2,0.35
87,6,33.9457,airplane,boat,1111_snp_hum_0.35_boat_40_n02951358_34051.png,5.0,2,0.35
87,7,5.0835,boat,boat,1111_snp_hum_0.2_boat_40_n03344393_7433.png,5.0,2,0.2
87,8,0.9003,elephant,elephant,1111_snp_hum_0.1_elephant_40_n02504458_4954.png,5.0,2,0.1
87,9,1.2504,car,knife,1111_snp_hum_0.1_knife_40_n03041632_25022.png,5.0,2,0.1
87,10,0.7007,elephant,elephant,1111_snp_hum_0.2_elephant_40_n02504458_1735.png,5.0,2,0.2
87,11,1.5839,airplane,airplane,1111_snp_hum_0.35_airplane_40_n02690373_1071.png,5.0,2,0.35
87,12,0.6334,car,car,1111_snp_hum_0.2_car_40_n04285008_9470.png,5.0,2,0.2
87,13,8.3995,truck,dog,1111_snp_hum_0.35_dog_40_n02112018_370.png,5.0,2,0.35
87,14,0.9504,bicycle,bicycle,1111_snp_hum_0.35_bicycle_40_n02835271_15038.png,5.0,2,0.35
87,15,1.0173,car,car,1111_snp_hum_0.0_car_40_n02814533_32461.png,5.0,2,0.0
87,16,0.8837,elephant,elephant,1111_snp_hum_0.2_elephant_40_n02504458_1998.png,5.0,2,0.2
87,17,1.5667,elephant,chair,1111_snp_hum_0.0_chair_40_n04429376_9212.png,5.0,2,0.0
87,18,1.1503,dog,dog,1111_snp_hum_0.0_dog_40_n02105056_9209.png,5.0,2,0.0
87,19,3.8165,bear,oven,1111_snp_hum_0.1_oven_40_n04111531_18592.png,5.0,2,0.1
87,20,5.4998,bird,bird,1111_snp_hum_0.0_bird_40_n01537544_15048.png,5.0,2,0.0
87,21,0.667,airplane,airplane,1111_snp_hum_0.0_airplane_40_n02690373_2435.png,5.0,3,0.0
87,22,2.2669,keyboard,keyboard,1111_snp_hum_0.1_keyboard_40_n03085013_24618.png,5.0,3,0.1
87,23,0.5670000000000001,truck,truck,1111_snp_hum_0.0_truck_40_n03417042_19905.png,5.0,3,0.0
87,24,1.1006,bird,bird,1111_snp_hum_0.35_bird_40_n01531178_8282.png,5.0,3,0.35
87,25,1.0337,airplane,airplane,1111_snp_hum_0.2_airplane_40_n02690373_6853.png,5.0,3,0.2
87,26,7.4996,elephant,cat,1111_snp_hum_0.35_cat_40_n02123045_8774.png,5.0,3,0.35
87,27,1.0002,chair,chair,1111_snp_hum_0.2_chair_40_n04429376_18127.png,5.0,3,0.2
87,28,1.5003,car,oven,1111_snp_hum_0.1_oven_40_n04111531_9712.png,5.0,3,0.1
87,29,0.5338,cat,cat,1111_snp_hum_0.0_cat_40_n02124075_14094.png,5.0,3,0.0
87,30,1.3005,bird,bird,1111_snp_hum_0.0_bird_40_n01530575_6098.png,5.0,3,0.0
87,31,1.4169999999999998,chair,chair,1111_snp_hum_0.2_chair_40_n03376595_4469.png,5.0,3,0.2
87,32,5.2666,bear,bear,1111_snp_hum_0.2_bear_40_n02132136_6787.png,5.0,3,0.2
87,33,6.0165,elephant,oven,1111_snp_hum_0.35_oven_40_n04111531_7034.png,5.0,3,0.35
87,34,0.6837,elephant,elephant,1111_snp_hum_0.1_elephant_40_n02504458_3953.png,5.0,3,0.1
87,35,4.3165,airplane,bear,1111_snp_hum_0.2_bear_40_n02134418_4041.png,5.0,3,0.2
87,36,0.9337,keyboard,keyboard,1111_snp_hum_0.35_keyboard_40_n03085013_6038.png,5.0,3,0.35
87,37,0.8837,chair,keyboard,1111_snp_hum_0.35_keyboard_40_n03085013_24577.png,5.0,3,0.35
87,38,7.7992,clock,clock,1111_snp_hum_0.1_clock_40_n02708093_1431.png,5.0,3,0.1
87,39,1.5504,car,car,1111_snp_hum_0.1_car_40_n04285008_3280.png,5.0,3,0.1
87,40,1.9169,car,knife,1111_snp_hum_0.0_knife_40_n03041632_3210.png,5.0,3,0.0
87,41,4.9499,bicycle,bottle,1111_snp_hum_0.1_bottle_40_n03983396_11337.png,5.0,4,0.1
87,42,1.0506,boat,boat,1111_snp_hum_0.0_boat_40_n02951358_32429.png,5.0,4,0.0
87,43,1.0507,dog,cat,1111_snp_hum_0.1_cat_40_n02124075_862.png,5.0,4,0.1
87,44,4.0335,car,clock,1111_snp_hum_0.35_clock_40_n03196217_5252.png,5.0,4,0.35
87,45,2.5501,oven,oven,1111_snp_hum_0.35_oven_40_n04111531_18645.png,5.0,4,0.35
87,46,1.3173,bicycle,bicycle,1111_snp_hum_0.2_bicycle_40_n02835271_13131.png,5.0,4,0.2
87,47,3.0001,elephant,bottle,1111_snp_hum_0.35_bottle_40_n04560804_32398.png,5.0,4,0.35
87,48,1.4336,truck,truck,1111_snp_hum_0.0_truck_40_n03796401_4495.png,5.0,4,0.0
87,49,1.8002,car,boat,1111_snp_hum_0.2_boat_40_n04612504_7166.png,5.0,4,0.2
87,50,1.85,bicycle,bird,1111_snp_hum_0.1_bird_40_n01843383_8077.png,5.0,4,0.1
87,51,1.4332,car,truck,1111_snp_hum_0.2_truck_40_n04467665_11776.png,5.0,4,0.2
87,52,1.6005,car,keyboard,1111_snp_hum_0.0_keyboard_40_n03085013_19436.png,5.0,4,0.0
87,53,0.5669,dog,dog,1111_snp_hum_0.2_dog_40_n02101388_2075.png,5.0,4,0.2
87,54,0.5166,cat,cat,1111_snp_hum_0.2_cat_40_n02123045_2025.png,5.0,4,0.2
87,55,0.6338,car,car,1111_snp_hum_0.35_car_40_n03100240_6805.png,5.0,4,0.35
87,56,1.1005,car,airplane,1111_snp_hum_0.35_airplane_40_n02690373_2024.png,5.0,4,0.35
87,57,0.6837,bicycle,bicycle,1111_snp_hum_0.1_bicycle_40_n02835271_15925.png,5.0,4,0.1
87,58,1.5834,bear,bear,1111_snp_hum_0.0_bear_40_n02134084_5027.png,5.0,4,0.0
87,59,5.3332,car,keyboard,1111_snp_hum_0.1_keyboard_40_n04505470_1833.png,5.0,4,0.1
87,60,1.1666,elephant,elephant,1111_snp_hum_0.0_elephant_40_n02504013_868.png,5.0,4,0.0
90,1,2.7333,bottle,bottle,1111_snp_hum_0.0_bottle_40_n04591713_2718.png,4.0,7,0.0
90,2,0.8669,bicycle,bicycle,1111_snp_hum_0.1_bicycle_40_n03792782_3467.png,4.0,7,0.1
90,3,1.0338,dog,dog,1111_snp_hum_0.0_dog_40_n02100877_20916.png,4.0,7,0.0
90,4,2.1003,clock,clock,1111_snp_hum_0.35_clock_40_n02708093_462.png,4.0,7,0.35
90,5,1.3502,keyboard,keyboard,1111_snp_hum_0.0_keyboard_40_n03085013_1483.png,4.0,7,0.0
90,6,3.2664,car,cat,1111_snp_hum_0.2_cat_40_n02123159_6505.png,4.0,7,0.2
90,7,0.7008,truck,truck,1111_snp_hum_0.0_truck_40_n03417042_11.png,4.0,7,0.0
90,8,7.3329999999999975,car,bird,1111_snp_hum_0.35_bird_40_n02025239_22501.png,4.0,7,0.35
90,9,1.8331,dog,boat,1111_snp_hum_0.1_boat_40_n02951358_14612.png,4.0,7,0.1
90,10,3.7169,car,car,1111_snp_hum_0.2_car_40_n02814533_82925.png,4.0,7,0.2
90,11,21.331,bear,knife,1111_snp_hum_0.35_knife_40_n03041632_31909.png,4.0,7,0.35
90,12,0.6004,airplane,airplane,1111_snp_hum_0.1_airplane_40_n02690373_1277.png,4.0,7,0.1
90,13,0.9835,elephant,elephant,1111_snp_hum_0.2_elephant_40_n02504013_6660.png,4.0,7,0.2
90,14,10.4657,knife,boat,1111_snp_hum_0.2_boat_40_n04612504_30742.png,4.0,7,0.2
90,15,2.5503,boat,boat,1111_snp_hum_0.35_boat_40_n02951358_31835.png,4.0,7,0.35
90,16,3.267,elephant,bird,1111_snp_hum_0.35_bird_40_n02033041_6633.png,4.0,7,0.35
90,17,3.3332,car,chair,1111_snp_hum_0.2_chair_40_n03376595_4309.png,4.0,7,0.2
90,18,6.8999,truck,truck,1111_snp_hum_0.1_truck_40_n03417042_12486.png,4.0,7,0.1
90,19,0.7838,bear,bear,1111_snp_hum_0.1_bear_40_n02133161_2137.png,4.0,7,0.1
90,20,2.8672,bottle,bottle,1111_snp_hum_0.0_bottle_40_n04560804_19872.png,4.0,7,0.0
90,21,0.4338,airplane,airplane,1111_snp_hum_0.0_airplane_40_n02690373_19152.png,4.0,8,0.0
90,22,0.4668,cat,cat,1111_snp_hum_0.1_cat_40_n02124075_3533.png,4.0,8,0.1
90,23,0.3838,elephant,elephant,1111_snp_hum_0.0_elephant_40_n02504458_3140.png,4.0,8,0.0
90,24,2.1667,elephant,chair,1111_snp_hum_0.35_chair_40_n03376595_6837.png,4.0,8,0.35
90,25,3.4168,elephant,cat,1111_snp_hum_0.35_cat_40_n02123394_2690.png,4.0,8,0.35
90,26,1.0171,truck,truck,1111_snp_hum_0.0_truck_40_n03417042_28078.png,4.0,8,0.0
90,27,9.3328,knife,knife,1111_snp_hum_0.0_knife_40_n03041632_4808.png,4.0,8,0.0
90,28,2.8833,clock,clock,1111_snp_hum_0.1_clock_40_n03196217_3943.png,4.0,8,0.1
90,29,15.4482,truck,clock,1111_snp_hum_0.2_clock_40_n04548280_2518.png,4.0,8,0.2
90,30,0.7173,chair,chair,1111_snp_hum_0.2_chair_40_n04099969_18182.png,4.0,8,0.2
90,31,1.8165,truck,truck,1111_snp_hum_0.1_truck_40_n03796401_14381.png,4.0,8,0.1
90,32,5.4828,clock,clock,1111_snp_hum_0.35_clock_40_n04548280_3997.png,4.0,8,0.35
90,33,2.7835,chair,bicycle,1111_snp_hum_0.2_bicycle_40_n02835271_7873.png,4.0,8,0.2
90,34,8.1828,elephant,bear,1111_snp_hum_0.35_bear_40_n02134418_4895.png,4.0,8,0.35
90,35,2.0,truck,truck,1111_snp_hum_0.2_truck_40_n03796401_17504.png,4.0,8,0.2
90,36,0.9174,car,car,1111_snp_hum_0.35_car_40_n02814533_23512.png,4.0,8,0.35
90,37,2.217,oven,oven,1111_snp_hum_0.2_oven_40_n04111531_326.png,4.0,8,0.2
90,38,4.0499,car,bicycle,1111_snp_hum_0.1_bicycle_40_n03792782_33855.png,4.0,8,0.1
90,39,2.2501,bird,bird,1111_snp_hum_0.1_bird_40_n02027492_2004.png,4.0,8,0.1
90,40,1.0838,dog,dog,1111_snp_hum_0.0_dog_40_n02098105_1796.png,4.0,8,0.0
90,41,3.2998,oven,clock,1111_snp_hum_0.0_clock_40_n03196217_6809.png,4.0,5,0.0
90,42,0.6839,car,car,1111_snp_hum_0.1_car_40_n02814533_83068.png,4.0,5,0.1
90,43,1.2338,boat,boat,1111_snp_hum_0.0_boat_40_n02951358_12866.png,4.0,5,0.0
90,44,1.7835,oven,oven,1111_snp_hum_0.1_oven_40_n04111531_9490.png,4.0,5,0.1
90,45,1.1003,dog,dog,1111_snp_hum_0.2_dog_40_n02107142_1550.png,4.0,5,0.2
90,46,9.9496,knife,bottle,1111_snp_hum_0.2_bottle_40_n04591713_595.png,4.0,5,0.2
90,47,3.9166,clock,bicycle,1111_snp_hum_0.35_bicycle_40_n02835271_8273.png,4.0,5,0.35
90,48,5.8499,bear,oven,1111_snp_hum_0.0_oven_40_n04111531_2930.png,4.0,5,0.0
90,49,0.6671,cat,cat,1111_snp_hum_0.2_cat_40_n02124075_20957.png,4.0,5,0.2
90,50,0.617,elephant,elephant,1111_snp_hum_0.1_elephant_40_n02504458_7408.png,4.0,5,0.1
90,51,2.5669999999999997,knife,knife,1111_snp_hum_0.2_knife_40_n03041632_47410.png,4.0,5,0.2
90,52,2.7504,bear,knife,1111_snp_hum_0.35_knife_40_n03041632_26340.png,4.0,5,0.35
90,53,2.3835,oven,airplane,1111_snp_hum_0.35_airplane_40_n02690373_2070.png,4.0,5,0.35
90,54,2.5169,oven,keyboard,1111_snp_hum_0.35_keyboard_40_n03085013_2122.png,4.0,5,0.35
90,55,3.417,keyboard,keyboard,1111_snp_hum_0.1_keyboard_40_n04505470_2115.png,4.0,5,0.1
90,56,1.0166,oven,knife,1111_snp_hum_0.35_knife_40_n03041632_11475.png,4.0,5,0.35
90,57,3.367,cat,bottle,1111_snp_hum_0.2_bottle_40_n04560804_12278.png,4.0,5,0.2
90,58,10.2324,boat,bottle,1111_snp_hum_0.0_bottle_40_n04560804_13773.png,4.0,5,0.0
90,59,1.2001,bear,bear,1111_snp_hum_0.1_bear_40_n02134084_4612.png,4.0,5,0.1
90,60,0.9336,bicycle,bicycle,1111_snp_hum_0.0_bicycle_40_n02835271_8081.png,4.0,5,0.0
90,61,0.5335,elephant,elephant,1111_snp_hum_0.1_elephant_40_n02504013_1916.png,4.0,6,0.1
90,62,7.2332,bottle,chair,1111_snp_hum_0.0_chair_40_n04429376_42324.png,4.0,6,0.0
90,63,0.9172,boat,boat,1111_snp_hum_0.0_boat_40_n02951358_15424.png,4.0,6,0.0
90,64,1.4004,chair,chair,1111_snp_hum_0.1_chair_40_n04099969_2398.png,4.0,6,0.1
90,65,1.3505,keyboard,keyboard,1111_snp_hum_0.2_keyboard_40_n04505470_6272.png,4.0,6,0.2
90,66,0.8518,bird,bird,1111_snp_hum_0.2_bird_40_n01532829_22520.png,4.0,6,0.2
90,67,0.9507,airplane,airplane,1111_snp_hum_0.2_airplane_40_n02690373_3912.png,4.0,6,0.2
90,68,2.017,cat,cat,1111_snp_hum_0.35_cat_40_n02124075_8351.png,4.0,6,0.35
90,69,4.6499,car,bear,1111_snp_hum_0.35_bear_40_n02134084_10224.png,4.0,6,0.35
90,70,5.9164,elephant,bear,1111_snp_hum_0.35_bear_40_n02133161_10314.png,4.0,6,0.35
90,71,0.8171,car,car,1111_snp_hum_0.35_car_40_n02814533_18458.png,4.0,6,0.35
90,72,1.0501,keyboard,keyboard,1111_snp_hum_0.1_keyboard_40_n04505470_933.png,4.0,6,0.1
90,73,2.3335,cat,dog,1111_snp_hum_0.1_dog_40_n02102318_11816.png,4.0,6,0.1
90,74,0.9836,airplane,airplane,1111_snp_hum_0.2_airplane_40_n02690373_4243.png,4.0,6,0.2
90,75,1.3837,elephant,elephant,1111_snp_hum_0.35_elephant_40_n02504458_4.png,4.0,6,0.35
90,76,0.9999,dog,dog,1111_snp_hum_0.2_dog_40_n02090721_1456.png,4.0,6,0.2
90,77,1.167,car,car,1111_snp_hum_0.1_car_40_n04285008_7096.png,4.0,6,0.1
90,78,1.4339,oven,oven,1111_snp_hum_0.0_oven_40_n04111531_21973.png,4.0,6,0.0
90,79,1.1837,bird,bird,1111_snp_hum_0.0_bird_40_n01530575_4260.png,4.0,6,0.0
90,80,4.2832,bird,oven,1111_snp_hum_0.0_oven_40_n04111531_23215.png,4.0,6,0.0
90,81,0.4506,elephant,elephant,1111_snp_hum_0.0_elephant_40_n02504013_19694.png,4.0,9,0.0
90,82,2.0006,bottle,bottle,1111_snp_hum_0.0_bottle_40_n04591713_2024.png,4.0,9,0.0
90,83,1.4507,bear,bear,1111_snp_hum_0.1_bear_40_n02134084_6343.png,4.0,9,0.1
90,84,2.8668,clock,clock,1111_snp_hum_0.35_clock_40_n04548280_11068.png,4.0,9,0.35
90,85,0.6004,airplane,airplane,1111_snp_hum_0.2_airplane_40_n02690373_14117.png,4.0,9,0.2
90,86,0.6839,cat,cat,1111_snp_hum_0.1_cat_40_n02124075_9716.png,4.0,9,0.1
90,87,0.5004,bird,bird,1111_snp_hum_0.2_bird_40_n02037110_8732.png,4.0,9,0.2
90,88,7.1825,car,boat,1111_snp_hum_0.35_boat_40_n02951358_34441.png,4.0,9,0.35
90,89,0.7337,elephant,elephant,1111_snp_hum_0.35_elephant_40_n02504458_1848.png,4.0,9,0.35
90,90,0.9504,car,truck,1111_snp_hum_0.35_truck_40_n03417042_14000.png,4.0,9,0.35
90,91,1.5501,oven,oven,1111_snp_hum_0.0_oven_40_n04111531_10306.png,4.0,9,0.0
90,92,1.2506,bear,bear,1111_snp_hum_0.2_bear_40_n02133161_1498.png,4.0,9,0.2
90,93,1.7169,knife,knife,1111_snp_hum_0.1_knife_40_n03041632_15444.png,4.0,9,0.1
90,94,1.4836,cat,dog,1111_snp_hum_0.35_dog_40_n02105056_328.png,4.0,9,0.35
90,95,2.5833,bird,bird,1111_snp_hum_0.1_bird_40_n02009229_5962.png,4.0,9,0.1
90,96,8.9324,bottle,keyboard,1111_snp_hum_0.2_keyboard_40_n04505470_4906.png,4.0,9,0.2
90,97,1.6331,clock,clock,1111_snp_hum_0.2_clock_40_n04548280_8585.png,4.0,9,0.2
90,98,0.95,keyboard,keyboard,1111_snp_hum_0.0_keyboard_40_n03085013_24455.png,4.0,9,0.0
90,99,1.0006,boat,boat,1111_snp_hum_0.1_boat_40_n02951358_2853.png,4.0,9,0.1
90,100,1.1337,dog,dog,1111_snp_hum_0.0_dog_40_n02096437_6439.png,4.0,9,0.0
90,101,0.7836,bicycle,bicycle,1111_snp_hum_0.1_bicycle_40_n03792782_23560.png,4.0,10,0.1
90,102,0.5669,car,car,1111_snp_hum_0.0_car_40_n04285008_2789.png,4.0,10,0.0
90,103,1.0007,oven,keyboard,1111_snp_hum_0.1_keyboard_40_n04505470_1430.png,4.0,10,0.1
90,104,1.7168,clock,clock,1111_snp_hum_0.2_clock_40_n03196217_4417.png,4.0,10,0.2
90,105,5.8999,dog,bottle,1111_snp_hum_0.2_bottle_40_n04591713_7221.png,4.0,10,0.2
90,106,5.1331,cat,elephant,1111_snp_hum_0.2_elephant_40_n02504458_1844.png,4.0,10,0.2
90,107,3.333,oven,cat,1111_snp_hum_0.2_cat_40_n02123159_3226.png,4.0,10,0.2
90,108,1.1836,boat,boat,1111_snp_hum_0.2_boat_40_n04612504_8942.png,4.0,10,0.2
90,109,2.5668,bird,bird,1111_snp_hum_0.1_bird_40_n02007558_45529.png,4.0,10,0.1
90,110,2.2001,keyboard,keyboard,1111_snp_hum_0.0_keyboard_40_n03085013_25181.png,4.0,10,0.0
90,111,1.8168,oven,chair,1111_snp_hum_0.35_chair_40_n04429376_19101.png,4.0,10,0.35
90,112,0.7506,elephant,bird,1111_snp_hum_0.35_bird_40_n01537544_2772.png,4.0,10,0.35
90,113,6.7331,car,truck,1111_snp_hum_0.35_truck_40_n04467665_50932.png,4.0,10,0.35
90,114,0.8004,car,car,1111_snp_hum_0.35_car_40_n03100240_6954.png,4.0,10,0.35
90,115,1.4172,oven,chair,1111_snp_hum_0.35_chair_40_n04429376_3620.png,4.0,10,0.35
90,116,0.7665,truck,truck,1111_snp_hum_0.0_truck_40_n03417042_23440.png,4.0,10,0.0
90,117,0.5169,dog,dog,1111_snp_hum_0.1_dog_40_n02108000_324.png,4.0,10,0.1
90,118,0.6672,boat,boat,1111_snp_hum_0.0_boat_40_n02951358_5718.png,4.0,10,0.0
90,119,3.1666,oven,knife,1111_snp_hum_0.1_knife_40_n03041632_24277.png,4.0,10,0.1
90,120,1.4501,oven,clock,1111_snp_hum_0.0_clock_40_n04548280_711.png,4.0,10,0.0
94,1,0.6005,airplane,airplane,1111_snp_hum_0.1_airplane_40_n02690373_1277.png,4.0,7,0.1
94,2,1.9836,dog,dog,1111_snp_hum_0.0_dog_40_n02100877_20916.png,4.0,7,0.0
94,3,0.4504,bicycle,bicycle,1111_snp_hum_0.1_bicycle_40_n03792782_3467.png,4.0,7,0.1
94,4,23.9808,bottle,knife,1111_snp_hum_0.35_knife_40_n03041632_31909.png,4.0,7,0.35
94,5,1.9334,airplane,truck,1111_snp_hum_0.1_truck_40_n03417042_12486.png,4.0,7,0.1
94,6,19.6143,car,cat,1111_snp_hum_0.2_cat_40_n02123159_6505.png,4.0,7,0.2
94,7,0.6837,car,car,1111_snp_hum_0.2_car_40_n02814533_82925.png,4.0,7,0.2
94,8,21.6145,truck,boat,1111_snp_hum_0.35_boat_40_n02951358_31835.png,4.0,7,0.35
94,9,0.7174,elephant,elephant,1111_snp_hum_0.2_elephant_40_n02504013_6660.png,4.0,7,0.2
94,10,11.4486,bicycle,bird,1111_snp_hum_0.35_bird_40_n02033041_6633.png,4.0,7,0.35
94,11,2.5999,airplane,clock,1111_snp_hum_0.35_clock_40_n02708093_462.png,4.0,7,0.35
94,12,1.7504,bottle,bottle,1111_snp_hum_0.0_bottle_40_n04591713_2718.png,4.0,7,0.0
94,13,4.2329,car,chair,1111_snp_hum_0.2_chair_40_n03376595_4309.png,4.0,7,0.2
94,14,24.1309,chair,boat,1111_snp_hum_0.2_boat_40_n04612504_30742.png,4.0,7,0.2
94,15,1.0172,keyboard,keyboard,1111_snp_hum_0.0_keyboard_40_n03085013_1483.png,4.0,7,0.0
94,16,7.9993,boat,bird,1111_snp_hum_0.35_bird_40_n02025239_22501.png,4.0,7,0.35
94,17,3.0001,boat,boat,1111_snp_hum_0.1_boat_40_n02951358_14612.png,4.0,7,0.1
94,18,0.6669,truck,truck,1111_snp_hum_0.0_truck_40_n03417042_11.png,4.0,7,0.0
94,19,10.9654,bird,bottle,1111_snp_hum_0.0_bottle_40_n04560804_19872.png,4.0,7,0.0
94,20,1.0506,bear,bear,1111_snp_hum_0.1_bear_40_n02133161_2137.png,4.0,7,0.1
94,21,3.4502,truck,truck,1111_snp_hum_0.1_truck_40_n03796401_14381.png,4.0,8,0.1
94,22,4.4829,dog,bicycle,1111_snp_hum_0.1_bicycle_40_n03792782_33855.png,4.0,8,0.1
94,23,0.7168,airplane,airplane,1111_snp_hum_0.0_airplane_40_n02690373_19152.png,4.0,8,0.0
94,24,1.1334,truck,truck,1111_snp_hum_0.2_truck_40_n03796401_17504.png,4.0,8,0.2
94,25,0.6173,cat,cat,1111_snp_hum_0.1_cat_40_n02124075_3533.png,4.0,8,0.1
94,26,2.0669,truck,oven,1111_snp_hum_0.2_oven_40_n04111531_326.png,4.0,8,0.2
94,27,11.4983,clock,clock,1111_snp_hum_0.35_clock_40_n04548280_3997.png,4.0,8,0.35
94,28,3.8336,bear,cat,1111_snp_hum_0.35_cat_40_n02123394_2690.png,4.0,8,0.35
94,29,10.8156,airplane,clock,1111_snp_hum_0.2_clock_40_n04548280_2518.png,4.0,8,0.2
94,30,3.8333,chair,chair,1111_snp_hum_0.2_chair_40_n04099969_18182.png,4.0,8,0.2
94,31,0.9674,bear,dog,1111_snp_hum_0.0_dog_40_n02098105_1796.png,4.0,8,0.0
94,32,0.7336,bicycle,bicycle,1111_snp_hum_0.2_bicycle_40_n02835271_7873.png,4.0,8,0.2
94,33,7.3827,bicycle,bear,1111_snp_hum_0.35_bear_40_n02134418_4895.png,4.0,8,0.35
94,34,6.5329,bear,chair,1111_snp_hum_0.35_chair_40_n03376595_6837.png,4.0,8,0.35
94,35,0.7172,car,car,1111_snp_hum_0.35_car_40_n02814533_23512.png,4.0,8,0.35
94,36,0.6836,elephant,elephant,1111_snp_hum_0.0_elephant_40_n02504458_3140.png,4.0,8,0.0
94,37,0.8501,truck,truck,1111_snp_hum_0.0_truck_40_n03417042_28078.png,4.0,8,0.0
94,38,5.4998,boat,knife,1111_snp_hum_0.0_knife_40_n03041632_4808.png,4.0,8,0.0
94,39,24.2802,boat,clock,1111_snp_hum_0.1_clock_40_n03196217_3943.png,4.0,8,0.1
94,40,1.0004,bird,bird,1111_snp_hum_0.1_bird_40_n02027492_2004.png,4.0,8,0.1
94,41,2.1502,boat,boat,1111_snp_hum_0.0_boat_40_n02951358_12866.png,4.0,5,0.0
94,42,10.9987,boat,keyboard,1111_snp_hum_0.1_keyboard_40_n04505470_2115.png,4.0,5,0.1
94,43,6.2167,car,bottle,1111_snp_hum_0.0_bottle_40_n04560804_13773.png,4.0,5,0.0
94,44,6.2663,clock,bottle,1111_snp_hum_0.2_bottle_40_n04591713_595.png,4.0,5,0.2
94,45,7.7165,boat,dog,1111_snp_hum_0.2_dog_40_n02107142_1550.png,4.0,5,0.2
94,46,4.8666,bear,bear,1111_snp_hum_0.1_bear_40_n02134084_4612.png,4.0,5,0.1
94,47,3.5167,cat,cat,1111_snp_hum_0.2_cat_40_n02124075_20957.png,4.0,5,0.2
94,48,7.4994,bird,airplane,1111_snp_hum_0.35_airplane_40_n02690373_2070.png,4.0,5,0.35
94,49,11.882,bicycle,oven,1111_snp_hum_0.0_oven_40_n04111531_2930.png,4.0,5,0.0
94,50,5.1496,bicycle,knife,1111_snp_hum_0.35_knife_40_n03041632_11475.png,4.0,5,0.35
94,51,2.5173,bear,knife,1111_snp_hum_0.2_knife_40_n03041632_47410.png,4.0,5,0.2
94,52,0.7006,car,car,1111_snp_hum_0.1_car_40_n02814533_83068.png,4.0,5,0.1
94,53,6.3663,bird,bicycle,1111_snp_hum_0.35_bicycle_40_n02835271_8273.png,4.0,5,0.35
94,54,2.3839,knife,oven,1111_snp_hum_0.1_oven_40_n04111531_9490.png,4.0,5,0.1
94,55,6.2662,chair,bottle,1111_snp_hum_0.2_bottle_40_n04560804_12278.png,4.0,5,0.2
94,56,5.8663,bird,keyboard,1111_snp_hum_0.35_keyboard_40_n03085013_2122.png,4.0,5,0.35
94,57,6.8162,airplane,knife,1111_snp_hum_0.35_knife_40_n03041632_26340.png,4.0,5,0.35
94,58,0.8508,elephant,elephant,1111_snp_hum_0.1_elephant_40_n02504458_7408.png,4.0,5,0.1
94,59,3.8833,clock,clock,1111_snp_hum_0.0_clock_40_n03196217_6809.png,4.0,5,0.0
94,60,0.8502,bicycle,bicycle,1111_snp_hum_0.0_bicycle_40_n02835271_8081.png,4.0,5,0.0
94,61,3.5498,keyboard,keyboard,1111_snp_hum_0.1_keyboard_40_n04505470_933.png,4.0,6,0.1
94,62,0.6836,boat,boat,1111_snp_hum_0.0_boat_40_n02951358_15424.png,4.0,6,0.0
94,63,9.0496,boat,oven,1111_snp_hum_0.0_oven_40_n04111531_21973.png,4.0,6,0.0
94,64,5.2662,car,bear,1111_snp_hum_0.35_bear_40_n02133161_10314.png,4.0,6,0.35
94,65,1.0171,car,car,1111_snp_hum_0.1_car_40_n04285008_7096.png,4.0,6,0.1
94,66,0.8668,bird,bird,1111_snp_hum_0.2_bird_40_n01532829_22520.png,4.0,6,0.2
94,67,0.7339,car,car,1111_snp_hum_0.35_car_40_n02814533_18458.png,4.0,6,0.35
94,68,6.0331,chair,chair,1111_snp_hum_0.1_chair_40_n04099969_2398.png,4.0,6,0.1
94,69,1.0173,elephant,elephant,1111_snp_hum_0.35_elephant_40_n02504458_4.png,4.0,6,0.35
94,70,2.9671,clock,cat,1111_snp_hum_0.35_cat_40_n02124075_8351.png,4.0,6,0.35
94,71,0.8173,airplane,airplane,1111_snp_hum_0.2_airplane_40_n02690373_3912.png,4.0,6,0.2
94,72,1.4835,car,dog,1111_snp_hum_0.2_dog_40_n02090721_1456.png,4.0,6,0.2
94,73,3.3503,keyboard,keyboard,1111_snp_hum_0.2_keyboard_40_n04505470_6272.png,4.0,6,0.2
94,74,5.9665,boat,chair,1111_snp_hum_0.0_chair_40_n04429376_42324.png,4.0,6,0.0
94,75,2.7002,airplane,bear,1111_snp_hum_0.35_bear_40_n02134084_10224.png,4.0,6,0.35
94,76,0.7506,airplane,airplane,1111_snp_hum_0.2_airplane_40_n02690373_4243.png,4.0,6,0.2
94,77,1.4835,bird,bird,1111_snp_hum_0.0_bird_40_n01530575_4260.png,4.0,6,0.0
94,78,2.3672,elephant,dog,1111_snp_hum_0.1_dog_40_n02102318_11816.png,4.0,6,0.1
94,79,0.8005,elephant,elephant,1111_snp_hum_0.1_elephant_40_n02504013_1916.png,4.0,6,0.1
94,80,2.2336,bear,oven,1111_snp_hum_0.0_oven_40_n04111531_23215.png,4.0,6,0.0
112,1,1.3504,bicycle,bicycle,1111_snp_hum_0.1_bicycle_40_n03792782_3467.png,5.0,7,0.1
112,2,9.8157,oven,truck,1111_snp_hum_0.1_truck_40_n03417042_12486.png,5.0,7,0.1
112,3,10.0657,cat,dog,1111_snp_hum_0.0_dog_40_n02100877_20916.png,5.0,7,0.0
112,4,1.2336,elephant,elephant,1111_snp_hum_0.2_elephant_40_n02504013_6660.png,5.0,7,0.2
112,5,2.3169999999999997,bear,bird,1111_snp_hum_0.35_bird_40_n02025239_22501.png,5.0,7,0.35
112,6,4.0837,truck,boat,1111_snp_hum_0.35_boat_40_n02951358_31835.png,5.0,7,0.35
112,7,1.4501,truck,truck,1111_snp_hum_0.0_truck_40_n03417042_11.png,5.0,7,0.0
112,8,3.1001,boat,boat,1111_snp_hum_0.2_boat_40_n04612504_30742.png,5.0,7,0.2
112,9,1.5836,car,car,1111_snp_hum_0.2_car_40_n02814533_82925.png,5.0,7,0.2
112,10,7.3660000000000005,cat,knife,1111_snp_hum_0.35_knife_40_n03041632_31909.png,5.0,7,0.35
112,11,1.767,clock,clock,1111_snp_hum_0.35_clock_40_n02708093_462.png,5.0,7,0.35
112,12,2.2828,chair,chair,1111_snp_hum_0.2_chair_40_n03376595_4309.png,5.0,7,0.2
112,13,1.3503,keyboard,keyboard,1111_snp_hum_0.0_keyboard_40_n03085013_1483.png,5.0,7,0.0
112,14,1.9666,bear,cat,1111_snp_hum_0.2_cat_40_n02123159_6505.png,5.0,7,0.2
112,15,1.6834,bottle,bottle,1111_snp_hum_0.0_bottle_40_n04591713_2718.png,5.0,7,0.0
112,16,2.1835,boat,boat,1111_snp_hum_0.1_boat_40_n02951358_14612.png,5.0,7,0.1
112,17,1.3839,bird,bird,1111_snp_hum_0.35_bird_40_n02033041_6633.png,5.0,7,0.35
112,18,2.1834,airplane,airplane,1111_snp_hum_0.1_airplane_40_n02690373_1277.png,5.0,7,0.1
112,19,1.6836,bottle,bottle,1111_snp_hum_0.0_bottle_40_n04560804_19872.png,5.0,7,0.0
112,20,1.7336,bear,bear,1111_snp_hum_0.1_bear_40_n02133161_2137.png,5.0,7,0.1
112,21,1.6336,keyboard,knife,1111_snp_hum_0.0_knife_40_n03041632_4808.png,5.0,8,0.0
112,22,1.2503,elephant,elephant,1111_snp_hum_0.0_elephant_40_n02504458_3140.png,5.0,8,0.0
112,23,1.3005,truck,truck,1111_snp_hum_0.1_truck_40_n03796401_14381.png,5.0,8,0.1
112,24,3.8336,clock,clock,1111_snp_hum_0.1_clock_40_n03196217_3943.png,5.0,8,0.1
112,25,4.7497,chair,chair,1111_snp_hum_0.2_chair_40_n04099969_18182.png,5.0,8,0.2
112,26,13.149000000000001,knife,clock,1111_snp_hum_0.35_clock_40_n04548280_3997.png,5.0,8,0.35
112,27,1.7167,bear,dog,1111_snp_hum_0.0_dog_40_n02098105_1796.png,5.0,8,0.0
112,28,1.9499,cat,cat,1111_snp_hum_0.1_cat_40_n02124075_3533.png,5.0,8,0.1
112,29,2.3334,oven,oven,1111_snp_hum_0.2_oven_40_n04111531_326.png,5.0,8,0.2
112,30,3.1,keyboard,clock,1111_snp_hum_0.2_clock_40_n04548280_2518.png,5.0,8,0.2
112,31,1.8669,bicycle,bicycle,1111_snp_hum_0.2_bicycle_40_n02835271_7873.png,5.0,8,0.2
112,32,2.0337,airplane,airplane,1111_snp_hum_0.0_airplane_40_n02690373_19152.png,5.0,8,0.0
112,33,1.7338,truck,truck,1111_snp_hum_0.2_truck_40_n03796401_17504.png,5.0,8,0.2
112,34,1.8837,elephant,cat,1111_snp_hum_0.35_cat_40_n02123394_2690.png,5.0,8,0.35
112,35,4.6998,bird,chair,1111_snp_hum_0.35_chair_40_n03376595_6837.png,5.0,8,0.35
112,36,1.4003,car,car,1111_snp_hum_0.35_car_40_n02814533_23512.png,5.0,8,0.35
112,37,2.1835,cat,bear,1111_snp_hum_0.35_bear_40_n02134418_4895.png,5.0,8,0.35
112,38,1.8667,bird,bird,1111_snp_hum_0.1_bird_40_n02027492_2004.png,5.0,8,0.1
112,39,1.1504,truck,truck,1111_snp_hum_0.0_truck_40_n03417042_28078.png,5.0,8,0.0
112,40,1.6836,bicycle,bicycle,1111_snp_hum_0.1_bicycle_40_n03792782_33855.png,5.0,8,0.1
113,1,1.2670000000000001,car,oven,1111_snp_hum_0.1_oven_40_n04111531_9490.png,5.0,5,0.1
113,2,1.3168,bottle,bottle,1111_snp_hum_0.0_bottle_40_n04560804_13773.png,5.0,5,0.0
113,3,1.1666,bear,bear,1111_snp_hum_0.1_bear_40_n02134084_4612.png,5.0,5,0.1
113,4,8.2995,car,knife,1111_snp_hum_0.35_knife_40_n03041632_26340.png,5.0,5,0.35
113,5,1.7169999999999999,truck,airplane,1111_snp_hum_0.35_airplane_40_n02690373_2070.png,5.0,5,0.35
113,6,1.9168,dog,dog,1111_snp_hum_0.2_dog_40_n02107142_1550.png,5.0,5,0.2
113,7,0.6166,cat,cat,1111_snp_hum_0.2_cat_40_n02124075_20957.png,5.0,5,0.2
113,8,1.3007,keyboard,clock,1111_snp_hum_0.0_clock_40_n03196217_6809.png,5.0,5,0.0
113,9,10.4154,airplane,bottle,1111_snp_hum_0.2_bottle_40_n04591713_595.png,5.0,5,0.2
113,10,1.0839,truck,knife,1111_snp_hum_0.35_knife_40_n03041632_11475.png,5.0,5,0.35
113,11,0.8505,elephant,elephant,1111_snp_hum_0.1_elephant_40_n02504458_7408.png,5.0,5,0.1
113,12,1.8333,keyboard,keyboard,1111_snp_hum_0.35_keyboard_40_n03085013_2122.png,5.0,5,0.35
113,13,0.7170000000000001,bicycle,bicycle,1111_snp_hum_0.35_bicycle_40_n02835271_8273.png,5.0,5,0.35
113,14,1.0837,knife,knife,1111_snp_hum_0.2_knife_40_n03041632_47410.png,5.0,5,0.2
113,15,1.2837,clock,bottle,1111_snp_hum_0.2_bottle_40_n04560804_12278.png,5.0,5,0.2
113,16,1.9337,keyboard,keyboard,1111_snp_hum_0.1_keyboard_40_n04505470_2115.png,5.0,5,0.1
113,17,2.667,boat,boat,1111_snp_hum_0.0_boat_40_n02951358_12866.png,5.0,5,0.0
113,18,0.8501,bicycle,bicycle,1111_snp_hum_0.0_bicycle_40_n02835271_8081.png,5.0,5,0.0
113,19,0.467,car,car,1111_snp_hum_0.1_car_40_n02814533_83068.png,5.0,5,0.1
113,20,8.7993,boat,oven,1111_snp_hum_0.0_oven_40_n04111531_2930.png,5.0,5,0.0
113,21,5.733,chair,chair,1111_snp_hum_0.1_chair_40_n04099969_2398.png,5.0,6,0.1
113,22,0.6336,boat,boat,1111_snp_hum_0.0_boat_40_n02951358_15424.png,5.0,6,0.0
113,23,1.2504,bicycle,car,1111_snp_hum_0.1_car_40_n04285008_7096.png,5.0,6,0.1
113,24,0.9834,keyboard,keyboard,1111_snp_hum_0.2_keyboard_40_n04505470_6272.png,5.0,6,0.2
113,25,6.2661,cat,oven,1111_snp_hum_0.0_oven_40_n04111531_21973.png,5.0,6,0.0
113,26,13.3654,bear,bear,1111_snp_hum_0.35_bear_40_n02133161_10314.png,5.0,6,0.35
113,27,2.7498,oven,oven,1111_snp_hum_0.0_oven_40_n04111531_23215.png,5.0,6,0.0
113,28,1.2506,elephant,elephant,1111_snp_hum_0.35_elephant_40_n02504458_4.png,5.0,6,0.35
113,29,1.1505,bird,bird,1111_snp_hum_0.2_bird_40_n01532829_22520.png,5.0,6,0.2
113,30,4.5997,dog,cat,1111_snp_hum_0.35_cat_40_n02124075_8351.png,5.0,6,0.35
113,31,1.4672,airplane,airplane,1111_snp_hum_0.2_airplane_40_n02690373_3912.png,5.0,6,0.2
113,32,1.3668,dog,dog,1111_snp_hum_0.2_dog_40_n02090721_1456.png,5.0,6,0.2
113,33,1.5839,bear,bear,1111_snp_hum_0.35_bear_40_n02134084_10224.png,5.0,6,0.35
113,34,1.5501,car,car,1111_snp_hum_0.35_car_40_n02814533_18458.png,5.0,6,0.35
113,35,2.0668,airplane,airplane,1111_snp_hum_0.2_airplane_40_n02690373_4243.png,5.0,6,0.2
113,36,0.8007,elephant,elephant,1111_snp_hum_0.1_elephant_40_n02504013_1916.png,5.0,6,0.1
113,37,1.0172,keyboard,keyboard,1111_snp_hum_0.1_keyboard_40_n04505470_933.png,5.0,6,0.1
113,38,1.5837,bird,bird,1111_snp_hum_0.0_bird_40_n01530575_4260.png,5.0,6,0.0
113,39,2.8337,bear,dog,1111_snp_hum_0.1_dog_40_n02102318_11816.png,5.0,6,0.1
113,40,7.1328,bottle,chair,1111_snp_hum_0.0_chair_40_n04429376_42324.png,5.0,6,0.0
115,1,0.6837,airplane,airplane,1111_snp_hum_0.1_airplane_40_n02690373_1277.png,6.0,7,0.1
115,2,0.6669,dog,dog,1111_snp_hum_0.0_dog_40_n02100877_20916.png,6.0,7,0.0
115,3,0.8936,bicycle,bicycle,1111_snp_hum_0.1_bicycle_40_n03792782_3467.png,6.0,7,0.1
115,4,2.5998,keyboard,keyboard,1111_snp_hum_0.0_keyboard_40_n03085013_1483.png,6.0,7,0.0
115,5,11.3157,oven,cat,1111_snp_hum_0.2_cat_40_n02123159_6505.png,6.0,7,0.2
115,6,0.8170000000000001,elephant,elephant,1111_snp_hum_0.2_elephant_40_n02504013_6660.png,6.0,7,0.2
115,7,1.5501,chair,chair,1111_snp_hum_0.2_chair_40_n03376595_4309.png,6.0,7,0.2
115,8,1.317,bird,bird,1111_snp_hum_0.35_bird_40_n02033041_6633.png,6.0,7,0.35
115,9,3.3502,boat,boat,1111_snp_hum_0.2_boat_40_n04612504_30742.png,6.0,7,0.2
115,10,2.6672,bicycle,knife,1111_snp_hum_0.35_knife_40_n03041632_31909.png,6.0,7,0.35
115,11,8.5159,car,bird,1111_snp_hum_0.35_bird_40_n02025239_22501.png,6.0,7,0.35
115,12,2.2336,bear,clock,1111_snp_hum_0.35_clock_40_n02708093_462.png,6.0,7,0.35
115,13,0.8668,truck,truck,1111_snp_hum_0.0_truck_40_n03417042_11.png,6.0,7,0.0
115,14,4.1834,bear,boat,1111_snp_hum_0.1_boat_40_n02951358_14612.png,6.0,7,0.1
115,15,15.9318,bear,boat,1111_snp_hum_0.35_boat_40_n02951358_31835.png,6.0,7,0.35
115,16,0.9837,car,car,1111_snp_hum_0.2_car_40_n02814533_82925.png,6.0,7,0.2
115,17,1.5669,truck,truck,1111_snp_hum_0.1_truck_40_n03417042_12486.png,6.0,7,0.1
115,18,2.3834,bear,bear,1111_snp_hum_0.1_bear_40_n02133161_2137.png,6.0,7,0.1
115,19,1.9173,bottle,bottle,1111_snp_hum_0.0_bottle_40_n04591713_2718.png,6.0,7,0.0
115,20,2.7669,bottle,bottle,1111_snp_hum_0.0_bottle_40_n04560804_19872.png,6.0,7,0.0
115,21,0.8173,elephant,elephant,1111_snp_hum_0.0_elephant_40_n02504458_3140.png,6.0,8,0.0
115,22,3.1833,car,bicycle,1111_snp_hum_0.1_bicycle_40_n03792782_33855.png,6.0,8,0.1
115,23,1.1337,dog,dog,1111_snp_hum_0.0_dog_40_n02098105_1796.png,6.0,8,0.0
115,24,0.8172,chair,chair,1111_snp_hum_0.2_chair_40_n04099969_18182.png,6.0,8,0.2
115,25,2.1831,bear,bear,1111_snp_hum_0.35_bear_40_n02134418_4895.png,6.0,8,0.35
115,26,0.667,cat,cat,1111_snp_hum_0.1_cat_40_n02124075_3533.png,6.0,8,0.1
115,27,6.8829,clock,clock,1111_snp_hum_0.35_clock_40_n04548280_3997.png,6.0,8,0.35
115,28,1.7502,oven,truck,1111_snp_hum_0.1_truck_40_n03796401_14381.png,6.0,8,0.1
115,29,1.3337,truck,truck,1111_snp_hum_0.2_truck_40_n03796401_17504.png,6.0,8,0.2
115,30,1.5167,clock,clock,1111_snp_hum_0.2_clock_40_n04548280_2518.png,6.0,8,0.2
115,31,1.1837,truck,truck,1111_snp_hum_0.0_truck_40_n03417042_28078.png,6.0,8,0.0
115,32,0.5671,car,car,1111_snp_hum_0.35_car_40_n02814533_23512.png,6.0,8,0.35
115,33,0.8171,airplane,airplane,1111_snp_hum_0.0_airplane_40_n02690373_19152.png,6.0,8,0.0
115,34,2.0003,oven,oven,1111_snp_hum_0.2_oven_40_n04111531_326.png,6.0,8,0.2
115,35,6.2167,bird,chair,1111_snp_hum_0.35_chair_40_n03376595_6837.png,6.0,8,0.35
115,36,0.8501,bicycle,bicycle,1111_snp_hum_0.2_bicycle_40_n02835271_7873.png,6.0,8,0.2
115,37,1.5168,cat,cat,1111_snp_hum_0.35_cat_40_n02123394_2690.png,6.0,8,0.35
115,38,0.7671,bird,bird,1111_snp_hum_0.1_bird_40_n02027492_2004.png,6.0,8,0.1
115,39,2.8501,knife,knife,1111_snp_hum_0.0_knife_40_n03041632_4808.png,6.0,8,0.0
115,40,2.2335,clock,clock,1111_snp_hum_0.1_clock_40_n03196217_3943.png,6.0,8,0.1
115,41,3.2502,bird,boat,1111_snp_hum_0.0_boat_40_n02951358_12866.png,6.0,5,0.0
115,42,2.6163,oven,oven,1111_snp_hum_0.0_oven_40_n04111531_2930.png,6.0,5,0.0
115,43,2.8834,truck,keyboard,1111_snp_hum_0.1_keyboard_40_n04505470_2115.png,6.0,5,0.1
115,44,7.0329999999999995,car,bottle,1111_snp_hum_0.2_bottle_40_n04591713_595.png,6.0,5,0.2
115,45,1.6338,oven,bottle,1111_snp_hum_0.0_bottle_40_n04560804_13773.png,6.0,5,0.0
115,46,1.4336,bicycle,bicycle,1111_snp_hum_0.35_bicycle_40_n02835271_8273.png,6.0,5,0.35
115,47,15.3986,boat,keyboard,1111_snp_hum_0.35_keyboard_40_n03085013_2122.png,6.0,5,0.35
115,48,6.6332,dog,dog,1111_snp_hum_0.2_dog_40_n02107142_1550.png,6.0,5,0.2
115,49,2.017,bird,oven,1111_snp_hum_0.1_oven_40_n04111531_9490.png,6.0,5,0.1
115,50,3.6834,bear,knife,1111_snp_hum_0.35_knife_40_n03041632_26340.png,6.0,5,0.35
115,51,8.5493,bear,bear,1111_snp_hum_0.1_bear_40_n02134084_4612.png,6.0,5,0.1
115,52,11.2659,dog,cat,1111_snp_hum_0.2_cat_40_n02124075_20957.png,6.0,5,0.2
115,53,1.5337,clock,clock,1111_snp_hum_0.0_clock_40_n03196217_6809.png,6.0,5,0.0
115,54,4.05,oven,knife,1111_snp_hum_0.35_knife_40_n03041632_11475.png,6.0,5,0.35
115,55,8.1992,knife,knife,1111_snp_hum_0.2_knife_40_n03041632_47410.png,6.0,5,0.2
115,56,9.4992,truck,bottle,1111_snp_hum_0.2_bottle_40_n04560804_12278.png,6.0,5,0.2
115,57,2.2338,airplane,airplane,1111_snp_hum_0.35_airplane_40_n02690373_2070.png,6.0,5,0.35
115,58,1.0673,bicycle,bicycle,1111_snp_hum_0.0_bicycle_40_n02835271_8081.png,6.0,5,0.0
115,59,1.5169,elephant,elephant,1111_snp_hum_0.1_elephant_40_n02504458_7408.png,6.0,5,0.1
115,60,1.4004,car,car,1111_snp_hum_0.1_car_40_n02814533_83068.png,6.0,5,0.1
119,1,8.1491,clock,chair,1111_snp_hum_0.0_chair_40_n04429376_42324.png,5.0,6,0.0
119,2,7.933,oven,oven,1111_snp_hum_0.0_oven_40_n04111531_23215.png,5.0,6,0.0
119,3,3.2001,cat,dog,1111_snp_hum_0.1_dog_40_n02102318_11816.png,5.0,6,0.1
119,4,2.8167,keyboard,keyboard,1111_snp_hum_0.1_keyboard_40_n04505470_933.png,5.0,6,0.1
119,5,3.1338,bird,keyboard,1111_snp_hum_0.2_keyboard_40_n04505470_6272.png,5.0,6,0.2
119,6,1.1335,car,car,1111_snp_hum_0.35_car_40_n02814533_18458.png,5.0,6,0.35
119,7,5.4832,bottle,cat,1111_snp_hum_0.35_cat_40_n02124075_8351.png,5.0,6,0.35
119,8,2.5002,oven,oven,1111_snp_hum_0.0_oven_40_n04111531_21973.png,5.0,6,0.0
119,9,3.0335,car,airplane,1111_snp_hum_0.2_airplane_40_n02690373_4243.png,5.0,6,0.2
119,10,7.8662,keyboard,bear,1111_snp_hum_0.35_bear_40_n02134084_10224.png,5.0,6,0.35
119,11,7.8659,oven,bear,1111_snp_hum_0.35_bear_40_n02133161_10314.png,5.0,6,0.35
119,12,1.2668,bird,bird,1111_snp_hum_0.2_bird_40_n01532829_22520.png,5.0,6,0.2
119,13,2.6166,bear,chair,1111_snp_hum_0.1_chair_40_n04099969_2398.png,5.0,6,0.1
119,14,4.8668,bird,dog,1111_snp_hum_0.2_dog_40_n02090721_1456.png,5.0,6,0.2
119,15,1.2835,airplane,airplane,1111_snp_hum_0.2_airplane_40_n02690373_3912.png,5.0,6,0.2
119,16,1.2337,elephant,elephant,1111_snp_hum_0.35_elephant_40_n02504458_4.png,5.0,6,0.35
119,17,1.5006,bicycle,car,1111_snp_hum_0.1_car_40_n04285008_7096.png,5.0,6,0.1
119,18,3.8,car,bird,1111_snp_hum_0.0_bird_40_n01530575_4260.png,5.0,6,0.0
119,19,1.9503,elephant,elephant,1111_snp_hum_0.1_elephant_40_n02504013_1916.png,5.0,6,0.1
119,20,1.2835,boat,boat,1111_snp_hum_0.0_boat_40_n02951358_15424.png,5.0,6,0.0
119,21,1.0,airplane,airplane,1111_snp_hum_0.1_airplane_40_n02690373_1277.png,5.0,7,0.1
119,22,0.7176,dog,dog,1111_snp_hum_0.0_dog_40_n02100877_20916.png,5.0,7,0.0
119,23,3.1168,airplane,boat,1111_snp_hum_0.1_boat_40_n02951358_14612.png,5.0,7,0.1
119,24,0.6175,airplane,boat,1111_snp_hum_0.35_boat_40_n02951358_31835.png,5.0,7,0.35
119,25,3.0839,bird,boat,1111_snp_hum_0.2_boat_40_n04612504_30742.png,5.0,7,0.2
119,26,0.7172,car,car,1111_snp_hum_0.2_car_40_n02814533_82925.png,5.0,7,0.2
119,27,0.9169,truck,truck,1111_snp_hum_0.0_truck_40_n03417042_11.png,5.0,7,0.0
119,28,3.9838,cat,bottle,1111_snp_hum_0.0_bottle_40_n04560804_19872.png,5.0,7,0.0
119,29,2.2505,airplane,clock,1111_snp_hum_0.35_clock_40_n02708093_462.png,5.0,7,0.35
119,30,3.7837,oven,knife,1111_snp_hum_0.35_knife_40_n03041632_31909.png,5.0,7,0.35
119,31,3.8334,cat,chair,1111_snp_hum_0.2_chair_40_n03376595_4309.png,5.0,7,0.2
119,32,8.0662,oven,bottle,1111_snp_hum_0.0_bottle_40_n04591713_2718.png,5.0,7,0.0
119,33,1.0511,elephant,elephant,1111_snp_hum_0.2_elephant_40_n02504013_6660.png,5.0,7,0.2
119,34,0.8175,bear,bear,1111_snp_hum_0.1_bear_40_n02133161_2137.png,5.0,7,0.1
119,35,2.6171,boat,cat,1111_snp_hum_0.2_cat_40_n02123159_6505.png,5.0,7,0.2
119,36,6.4328,chair,bird,1111_snp_hum_0.35_bird_40_n02025239_22501.png,5.0,7,0.35
119,37,4.333,clock,bird,1111_snp_hum_0.35_bird_40_n02033041_6633.png,5.0,7,0.35
119,38,2.7166,keyboard,keyboard,1111_snp_hum_0.0_keyboard_40_n03085013_1483.png,5.0,7,0.0
119,39,2.9171,truck,truck,1111_snp_hum_0.1_truck_40_n03417042_12486.png,5.0,7,0.1
119,40,0.7338,bicycle,bicycle,1111_snp_hum_0.1_bicycle_40_n03792782_3467.png,5.0,7,0.1
119,41,0.6838,cat,cat,1111_snp_hum_0.1_cat_40_n02124075_3533.png,5.0,8,0.1
119,42,0.9172,truck,truck,1111_snp_hum_0.0_truck_40_n03417042_28078.png,5.0,8,0.0
119,43,1.0338,elephant,elephant,1111_snp_hum_0.0_elephant_40_n02504458_3140.png,5.0,8,0.0
