subj,trial,rt,object_response,category,imagename,age,block,difficulty
ResNeXt101_32x16d_swsl,1,,airplane,airplane,1111_cc_dnn_0_airplane_40_n02690373_1071.JPEG,,,0
ResNeXt101_32x16d_swsl,2,,airplane,airplane,1111_cc_dnn_0_airplane_40_n02690373_19152.JPEG,,,0
ResNeXt101_32x16d_swsl,3,,airplane,airplane,1111_cc_dnn_0_airplane_40_n02690373_2024.JPEG,,,0
ResNeXt101_32x16d_swsl,4,,airplane,airplane,1111_cc_dnn_0_airplane_40_n02690373_2070.JPEG,,,0
ResNeXt101_32x16d_swsl,5,,airplane,airplane,1111_cc_dnn_0_airplane_40_n02690373_3874.JPEG,,,0
ResNeXt101_32x16d_swsl,6,,airplane,airplane,1111_cc_dnn_0_airplane_40_n02690373_4243.JPEG,,,0
ResNeXt101_32x16d_swsl,7,,airplane,airplane,1111_cc_dnn_0_airplane_40_n02690373_4728.JPEG,,,0
ResNeXt101_32x16d_swsl,8,,airplane,airplane,1111_cc_dnn_0_airplane_40_n02690373_6853.JPEG,,,0
ResNeXt101_32x16d_swsl,9,,airplane,airplane,1111_cc_dnn_0_airplane_40_n02690373_6999.JPEG,,,0
ResNeXt101_32x16d_swsl,10,,airplane,airplane,1111_cc_dnn_0_airplane_40_n02690373_8789.JPEG,,,0
ResNeXt101_32x16d_swsl,11,,bear,bear,1111_cc_dnn_0_bear_40_n02132136_1934.JPEG,,,0
ResNeXt101_32x16d_swsl,12,,bear,bear,1111_cc_dnn_0_bear_40_n02132136_6787.JPEG,,,0
ResNeXt101_32x16d_swsl,13,,bear,bear,1111_cc_dnn_0_bear_40_n02133161_2137.JPEG,,,0
ResNeXt101_32x16d_swsl,14,,bear,bear,1111_cc_dnn_0_bear_40_n02134084_2004.JPEG,,,0
ResNeXt101_32x16d_swsl,15,,bear,bear,1111_cc_dnn_0_bear_40_n02134084_5027.JPEG,,,0
ResNeXt101_32x16d_swsl,16,,bear,bear,1111_cc_dnn_0_bear_40_n02134084_6343.JPEG,,,0
ResNeXt101_32x16d_swsl,17,,bear,bear,1111_cc_dnn_0_bear_40_n02134418_4041.JPEG,,,0
ResNeXt101_32x16d_swsl,18,,bear,bear,1111_cc_dnn_0_bear_40_n02134418_4886.JPEG,,,0
ResNeXt101_32x16d_swsl,19,,bear,bear,1111_cc_dnn_0_bear_40_n02134418_4895.JPEG,,,0
ResNeXt101_32x16d_swsl,20,,bear,bear,1111_cc_dnn_0_bear_40_n02134418_703.JPEG,,,0
ResNeXt101_32x16d_swsl,21,,bicycle,bicycle,1111_cc_dnn_0_bicycle_40_n02835271_13131.JPEG,,,0
ResNeXt101_32x16d_swsl,22,,bicycle,bicycle,1111_cc_dnn_0_bicycle_40_n02835271_276.JPEG,,,0
ResNeXt101_32x16d_swsl,23,,bicycle,bicycle,1111_cc_dnn_0_bicycle_40_n03792782_14216.JPEG,,,0
ResNeXt101_32x16d_swsl,24,,bicycle,bicycle,1111_cc_dnn_0_bicycle_40_n03792782_17337.JPEG,,,0
ResNeXt101_32x16d_swsl,25,,bicycle,bicycle,1111_cc_dnn_0_bicycle_40_n03792782_3047.JPEG,,,0
ResNeXt101_32x16d_swsl,26,,bicycle,bicycle,1111_cc_dnn_0_bicycle_40_n03792782_33855.JPEG,,,0
ResNeXt101_32x16d_swsl,27,,bicycle,bicycle,1111_cc_dnn_0_bicycle_40_n03792782_3467.JPEG,,,0
ResNeXt101_32x16d_swsl,28,,bicycle,bicycle,1111_cc_dnn_0_bicycle_40_n03792782_3631.JPEG,,,0
ResNeXt101_32x16d_swsl,29,,bicycle,bicycle,1111_cc_dnn_0_bicycle_40_n03792782_52601.JPEG,,,0
ResNeXt101_32x16d_swsl,30,,bicycle,bicycle,1111_cc_dnn_0_bicycle_40_n03792782_692.JPEG,,,0
ResNeXt101_32x16d_swsl,31,,bird,bird,1111_cc_dnn_0_bird_40_n01530575_4260.JPEG,,,0
ResNeXt101_32x16d_swsl,32,,bird,bird,1111_cc_dnn_0_bird_40_n01532829_22520.JPEG,,,0
ResNeXt101_32x16d_swsl,33,,bird,bird,1111_cc_dnn_0_bird_40_n01537544_2772.JPEG,,,0
ResNeXt101_32x16d_swsl,34,,bird,bird,1111_cc_dnn_0_bird_40_n01601694_13334.JPEG,,,0
ResNeXt101_32x16d_swsl,35,,bird,bird,1111_cc_dnn_0_bird_40_n01843383_8077.JPEG,,,0
ResNeXt101_32x16d_swsl,36,,bird,bird,1111_cc_dnn_0_bird_40_n02007558_10725.JPEG,,,0
ResNeXt101_32x16d_swsl,37,,bird,bird,1111_cc_dnn_0_bird_40_n02025239_22501.JPEG,,,0
ResNeXt101_32x16d_swsl,38,,bird,bird,1111_cc_dnn_0_bird_40_n02033041_6633.JPEG,,,0
ResNeXt101_32x16d_swsl,39,,bird,bird,1111_cc_dnn_0_bird_40_n02037110_11551.JPEG,,,0
ResNeXt101_32x16d_swsl,40,,bird,bird,1111_cc_dnn_0_bird_40_n02037110_8732.JPEG,,,0
ResNeXt101_32x16d_swsl,41,,boat,boat,1111_cc_dnn_0_boat_40_n02951358_15424.JPEG,,,0
ResNeXt101_32x16d_swsl,42,,boat,boat,1111_cc_dnn_0_boat_40_n02951358_2853.JPEG,,,0
ResNeXt101_32x16d_swsl,43,,boat,boat,1111_cc_dnn_0_boat_40_n02951358_34441.JPEG,,,0
ResNeXt101_32x16d_swsl,44,,boat,boat,1111_cc_dnn_0_boat_40_n02951358_4826.JPEG,,,0
ResNeXt101_32x16d_swsl,45,,boat,boat,1111_cc_dnn_0_boat_40_n02951358_5718.JPEG,,,0
ResNeXt101_32x16d_swsl,46,,boat,boat,1111_cc_dnn_0_boat_40_n03344393_302.JPEG,,,0
ResNeXt101_32x16d_swsl,47,,boat,boat,1111_cc_dnn_0_boat_40_n04273569_13091.JPEG,,,0
ResNeXt101_32x16d_swsl,48,,boat,boat,1111_cc_dnn_0_boat_40_n04612504_30742.JPEG,,,0
ResNeXt101_32x16d_swsl,49,,boat,boat,1111_cc_dnn_0_boat_40_n04612504_7166.JPEG,,,0
ResNeXt101_32x16d_swsl,50,,boat,boat,1111_cc_dnn_0_boat_40_n04612504_8942.JPEG,,,0
ResNeXt101_32x16d_swsl,51,,bottle,bottle,1111_cc_dnn_0_bottle_40_n02823428_825.JPEG,,,0
ResNeXt101_32x16d_swsl,52,,bottle,bottle,1111_cc_dnn_0_bottle_40_n03937543_2357.JPEG,,,0
ResNeXt101_32x16d_swsl,53,,bottle,bottle,1111_cc_dnn_0_bottle_40_n04560804_12278.JPEG,,,0
ResNeXt101_32x16d_swsl,54,,bottle,bottle,1111_cc_dnn_0_bottle_40_n04560804_13773.JPEG,,,0
ResNeXt101_32x16d_swsl,55,,bottle,bottle,1111_cc_dnn_0_bottle_40_n04560804_32398.JPEG,,,0
ResNeXt101_32x16d_swsl,56,,bottle,bottle,1111_cc_dnn_0_bottle_40_n04560804_9813.JPEG,,,0
ResNeXt101_32x16d_swsl,57,,bottle,bottle,1111_cc_dnn_0_bottle_40_n04579145_1302.JPEG,,,0
ResNeXt101_32x16d_swsl,58,,bottle,bottle,1111_cc_dnn_0_bottle_40_n04591713_2718.JPEG,,,0
ResNeXt101_32x16d_swsl,59,,bottle,bottle,1111_cc_dnn_0_bottle_40_n04591713_5754.JPEG,,,0
ResNeXt101_32x16d_swsl,60,,bottle,bottle,1111_cc_dnn_0_bottle_40_n04591713_6238.JPEG,,,0
ResNeXt101_32x16d_swsl,61,,car,car,1111_cc_dnn_0_car_40_n02814533_18458.JPEG,,,0
ResNeXt101_32x16d_swsl,62,,car,car,1111_cc_dnn_0_car_40_n02814533_23512.JPEG,,,0
ResNeXt101_32x16d_swsl,63,,car,car,1111_cc_dnn_0_car_40_n02814533_32461.JPEG,,,0
ResNeXt101_32x16d_swsl,64,,car,car,1111_cc_dnn_0_car_40_n02814533_82925.JPEG,,,0
ResNeXt101_32x16d_swsl,65,,car,car,1111_cc_dnn_0_car_40_n03100240_418.JPEG,,,0
ResNeXt101_32x16d_swsl,66,,car,car,1111_cc_dnn_0_car_40_n03100240_6805.JPEG,,,0
ResNeXt101_32x16d_swsl,67,,car,car,1111_cc_dnn_0_car_40_n03100240_6954.JPEG,,,0
ResNeXt101_32x16d_swsl,68,,car,car,1111_cc_dnn_0_car_40_n04285008_2789.JPEG,,,0
ResNeXt101_32x16d_swsl,69,,car,car,1111_cc_dnn_0_car_40_n04285008_3280.JPEG,,,0
ResNeXt101_32x16d_swsl,70,,car,car,1111_cc_dnn_0_car_40_n04285008_9470.JPEG,,,0
ResNeXt101_32x16d_swsl,71,,cat,cat,1111_cc_dnn_0_cat_40_n02123045_8774.JPEG,,,0
ResNeXt101_32x16d_swsl,72,,cat,cat,1111_cc_dnn_0_cat_40_n02123045_9341.JPEG,,,0
ResNeXt101_32x16d_swsl,73,,cat,cat,1111_cc_dnn_0_cat_40_n02123045_964.JPEG,,,0
ResNeXt101_32x16d_swsl,74,,cat,cat,1111_cc_dnn_0_cat_40_n02123159_2684.JPEG,,,0
ResNeXt101_32x16d_swsl,75,,cat,cat,1111_cc_dnn_0_cat_40_n02123159_3330.JPEG,,,0
ResNeXt101_32x16d_swsl,76,,cat,cat,1111_cc_dnn_0_cat_40_n02123394_2364.JPEG,,,0
ResNeXt101_32x16d_swsl,77,,cat,cat,1111_cc_dnn_0_cat_40_n02124075_14094.JPEG,,,0
ResNeXt101_32x16d_swsl,78,,cat,cat,1111_cc_dnn_0_cat_40_n02124075_8351.JPEG,,,0
ResNeXt101_32x16d_swsl,79,,cat,cat,1111_cc_dnn_0_cat_40_n02124075_8754.JPEG,,,0
ResNeXt101_32x16d_swsl,80,,cat,cat,1111_cc_dnn_0_cat_40_n02124075_9716.JPEG,,,0
ResNeXt101_32x16d_swsl,81,,chair,chair,1111_cc_dnn_0_chair_40_n03376595_2566.JPEG,,,0
ResNeXt101_32x16d_swsl,82,,chair,chair,1111_cc_dnn_0_chair_40_n03376595_4309.JPEG,,,0
ResNeXt101_32x16d_swsl,83,,chair,chair,1111_cc_dnn_0_chair_40_n03376595_4469.JPEG,,,0
ResNeXt101_32x16d_swsl,84,,chair,chair,1111_cc_dnn_0_chair_40_n04099969_13056.JPEG,,,0
ResNeXt101_32x16d_swsl,85,,chair,chair,1111_cc_dnn_0_chair_40_n04099969_18182.JPEG,,,0
ResNeXt101_32x16d_swsl,86,,chair,chair,1111_cc_dnn_0_chair_40_n04099969_2267.JPEG,,,0
ResNeXt101_32x16d_swsl,87,,chair,chair,1111_cc_dnn_0_chair_40_n04099969_2398.JPEG,,,0
ResNeXt101_32x16d_swsl,88,,chair,chair,1111_cc_dnn_0_chair_40_n04429376_18127.JPEG,,,0
ResNeXt101_32x16d_swsl,89,,chair,chair,1111_cc_dnn_0_chair_40_n04429376_19101.JPEG,,,0
ResNeXt101_32x16d_swsl,90,,chair,chair,1111_cc_dnn_0_chair_40_n04429376_9212.JPEG,,,0
ResNeXt101_32x16d_swsl,91,,clock,clock,1111_cc_dnn_0_clock_40_n02708093_3459.JPEG,,,0
ResNeXt101_32x16d_swsl,92,,clock,clock,1111_cc_dnn_0_clock_40_n03196217_3943.JPEG,,,0
ResNeXt101_32x16d_swsl,93,,clock,clock,1111_cc_dnn_0_clock_40_n03196217_4417.JPEG,,,0
ResNeXt101_32x16d_swsl,94,,clock,clock,1111_cc_dnn_0_clock_40_n03196217_5252.JPEG,,,0
ResNeXt101_32x16d_swsl,95,,clock,clock,1111_cc_dnn_0_clock_40_n03196217_5478.JPEG,,,0
ResNeXt101_32x16d_swsl,96,,clock,clock,1111_cc_dnn_0_clock_40_n03196217_585.JPEG,,,0
ResNeXt101_32x16d_swsl,97,,clock,clock,1111_cc_dnn_0_clock_40_n03196217_6809.JPEG,,,0
ResNeXt101_32x16d_swsl,98,,clock,clock,1111_cc_dnn_0_clock_40_n04548280_1438.JPEG,,,0
ResNeXt101_32x16d_swsl,99,,clock,clock,1111_cc_dnn_0_clock_40_n04548280_2518.JPEG,,,0
ResNeXt101_32x16d_swsl,100,,clock,clock,1111_cc_dnn_0_clock_40_n04548280_7490.JPEG,,,0
ResNeXt101_32x16d_swsl,101,,dog,dog,1111_cc_dnn_0_dog_40_n02088632_2814.JPEG,,,0
ResNeXt101_32x16d_swsl,102,,dog,dog,1111_cc_dnn_0_dog_40_n02097130_1834.JPEG,,,0
ResNeXt101_32x16d_swsl,103,,dog,dog,1111_cc_dnn_0_dog_40_n02099712_5781.JPEG,,,0
ResNeXt101_32x16d_swsl,104,,dog,dog,1111_cc_dnn_0_dog_40_n02101388_2075.JPEG,,,0
ResNeXt101_32x16d_swsl,105,,dog,dog,1111_cc_dnn_0_dog_40_n02102318_11816.JPEG,,,0
ResNeXt101_32x16d_swsl,106,,dog,dog,1111_cc_dnn_0_dog_40_n02106382_14862.JPEG,,,0
ResNeXt101_32x16d_swsl,107,,dog,dog,1111_cc_dnn_0_dog_40_n02108000_324.JPEG,,,0
ResNeXt101_32x16d_swsl,108,,dog,dog,1111_cc_dnn_0_dog_40_n02110806_16707.JPEG,,,0
ResNeXt101_32x16d_swsl,109,,dog,dog,1111_cc_dnn_0_dog_40_n02112018_370.JPEG,,,0
ResNeXt101_32x16d_swsl,110,,dog,dog,1111_cc_dnn_0_dog_40_n02113624_1203.JPEG,,,0
ResNeXt101_32x16d_swsl,111,,elephant,elephant,1111_cc_dnn_0_elephant_40_n02504013_1916.JPEG,,,0
ResNeXt101_32x16d_swsl,112,,elephant,elephant,1111_cc_dnn_0_elephant_40_n02504013_19694.JPEG,,,0
ResNeXt101_32x16d_swsl,113,,elephant,elephant,1111_cc_dnn_0_elephant_40_n02504013_6660.JPEG,,,0
ResNeXt101_32x16d_swsl,114,,elephant,elephant,1111_cc_dnn_0_elephant_40_n02504013_8385.JPEG,,,0
ResNeXt101_32x16d_swsl,115,,elephant,elephant,1111_cc_dnn_0_elephant_40_n02504458_1848.JPEG,,,0
ResNeXt101_32x16d_swsl,116,,elephant,elephant,1111_cc_dnn_0_elephant_40_n02504458_3140.JPEG,,,0
ResNeXt101_32x16d_swsl,117,,elephant,elephant,1111_cc_dnn_0_elephant_40_n02504458_4.JPEG,,,0
ResNeXt101_32x16d_swsl,118,,elephant,elephant,1111_cc_dnn_0_elephant_40_n02504458_4336.JPEG,,,0
ResNeXt101_32x16d_swsl,119,,elephant,elephant,1111_cc_dnn_0_elephant_40_n02504458_4954.JPEG,,,0
ResNeXt101_32x16d_swsl,120,,elephant,elephant,1111_cc_dnn_0_elephant_40_n02504458_7013.JPEG,,,0
ResNeXt101_32x16d_swsl,121,,keyboard,keyboard,1111_cc_dnn_0_keyboard_40_n03085013_1483.JPEG,,,0
ResNeXt101_32x16d_swsl,122,,keyboard,keyboard,1111_cc_dnn_0_keyboard_40_n03085013_17762.JPEG,,,0
ResNeXt101_32x16d_swsl,123,,keyboard,keyboard,1111_cc_dnn_0_keyboard_40_n03085013_19436.JPEG,,,0
ResNeXt101_32x16d_swsl,124,,keyboard,keyboard,1111_cc_dnn_0_keyboard_40_n03085013_2122.JPEG,,,0
ResNeXt101_32x16d_swsl,125,,keyboard,keyboard,1111_cc_dnn_0_keyboard_40_n03085013_25181.JPEG,,,0
ResNeXt101_32x16d_swsl,126,,keyboard,keyboard,1111_cc_dnn_0_keyboard_40_n03085013_4160.JPEG,,,0
ResNeXt101_32x16d_swsl,127,,keyboard,keyboard,1111_cc_dnn_0_keyboard_40_n04505470_1430.JPEG,,,0
ResNeXt101_32x16d_swsl,128,,keyboard,keyboard,1111_cc_dnn_0_keyboard_40_n04505470_2115.JPEG,,,0
ResNeXt101_32x16d_swsl,129,,keyboard,keyboard,1111_cc_dnn_0_keyboard_40_n04505470_2570.JPEG,,,0
ResNeXt101_32x16d_swsl,130,,keyboard,keyboard,1111_cc_dnn_0_keyboard_40_n04505470_933.JPEG,,,0
ResNeXt101_32x16d_swsl,131,,knife,knife,1111_cc_dnn_0_knife_40_n03041632_105081.JPEG,,,0
ResNeXt101_32x16d_swsl,132,,knife,knife,1111_cc_dnn_0_knife_40_n03041632_11797.JPEG,,,0
ResNeXt101_32x16d_swsl,133,,knife,knife,1111_cc_dnn_0_knife_40_n03041632_14224.JPEG,,,0
ResNeXt101_32x16d_swsl,134,,knife,knife,1111_cc_dnn_0_knife_40_n03041632_17338.JPEG,,,0
ResNeXt101_32x16d_swsl,135,,knife,knife,1111_cc_dnn_0_knife_40_n03041632_21723.JPEG,,,0
ResNeXt101_32x16d_swsl,136,,knife,knife,1111_cc_dnn_0_knife_40_n03041632_24114.JPEG,,,0
ResNeXt101_32x16d_swsl,137,,knife,knife,1111_cc_dnn_0_knife_40_n03041632_24277.JPEG,,,0
ResNeXt101_32x16d_swsl,138,,knife,knife,1111_cc_dnn_0_knife_40_n03041632_26340.JPEG,,,0
ResNeXt101_32x16d_swsl,139,,knife,knife,1111_cc_dnn_0_knife_40_n03041632_4808.JPEG,,,0
ResNeXt101_32x16d_swsl,140,,knife,knife,1111_cc_dnn_0_knife_40_n03041632_83826.JPEG,,,0
ResNeXt101_32x16d_swsl,141,,oven,oven,1111_cc_dnn_0_oven_40_n04111531_10011.JPEG,,,0
ResNeXt101_32x16d_swsl,142,,oven,oven,1111_cc_dnn_0_oven_40_n04111531_1054.JPEG,,,0
ResNeXt101_32x16d_swsl,143,,oven,oven,1111_cc_dnn_0_oven_40_n04111531_11530.JPEG,,,0
ResNeXt101_32x16d_swsl,144,,oven,oven,1111_cc_dnn_0_oven_40_n04111531_14611.JPEG,,,0
ResNeXt101_32x16d_swsl,145,,oven,oven,1111_cc_dnn_0_oven_40_n04111531_23215.JPEG,,,0
ResNeXt101_32x16d_swsl,146,,oven,oven,1111_cc_dnn_0_oven_40_n04111531_2371.JPEG,,,0
ResNeXt101_32x16d_swsl,147,,oven,oven,1111_cc_dnn_0_oven_40_n04111531_7034.JPEG,,,0
ResNeXt101_32x16d_swsl,148,,oven,oven,1111_cc_dnn_0_oven_40_n04111531_9490.JPEG,,,0
ResNeXt101_32x16d_swsl,149,,oven,oven,1111_cc_dnn_0_oven_40_n04111531_9712.JPEG,,,0
ResNeXt101_32x16d_swsl,150,,oven,oven,1111_cc_dnn_0_oven_40_n04111531_9844.JPEG,,,0
ResNeXt101_32x16d_swsl,151,,truck,truck,1111_cc_dnn_0_truck_40_n03417042_10043.JPEG,,,0
ResNeXt101_32x16d_swsl,152,,truck,truck,1111_cc_dnn_0_truck_40_n03417042_12133.JPEG,,,0
ResNeXt101_32x16d_swsl,153,,truck,truck,1111_cc_dnn_0_truck_40_n03417042_14000.JPEG,,,0
ResNeXt101_32x16d_swsl,154,,truck,truck,1111_cc_dnn_0_truck_40_n03417042_16389.JPEG,,,0
ResNeXt101_32x16d_swsl,155,,truck,truck,1111_cc_dnn_0_truck_40_n03417042_19905.JPEG,,,0
ResNeXt101_32x16d_swsl,156,,truck,truck,1111_cc_dnn_0_truck_40_n03417042_28078.JPEG,,,0
ResNeXt101_32x16d_swsl,157,,truck,truck,1111_cc_dnn_0_truck_40_n03796401_15756.JPEG,,,0
ResNeXt101_32x16d_swsl,158,,truck,truck,1111_cc_dnn_0_truck_40_n03796401_4309.JPEG,,,0
ResNeXt101_32x16d_swsl,159,,truck,truck,1111_cc_dnn_0_truck_40_n04467665_11776.JPEG,,,0
ResNeXt101_32x16d_swsl,160,,truck,truck,1111_cc_dnn_0_truck_40_n04467665_50932.JPEG,,,0
ResNeXt101_32x16d_swsl,161,,boat,airplane,1111_cc_dnn_1_airplane1-chair2.png,,,1
ResNeXt101_32x16d_swsl,162,,clock,airplane,1111_cc_dnn_1_airplane1-clock1.png,,,1
ResNeXt101_32x16d_swsl,163,,bear,airplane,1111_cc_dnn_1_airplane2-bear1.png,,,1
ResNeXt101_32x16d_swsl,164,,bear,airplane,1111_cc_dnn_1_airplane2-dog1.png,,,1
ResNeXt101_32x16d_swsl,165,,elephant,airplane,1111_cc_dnn_1_airplane3-elephant1.png,,,1
ResNeXt101_32x16d_swsl,166,,elephant,airplane,1111_cc_dnn_1_airplane4-elephant1.png,,,1
ResNeXt101_32x16d_swsl,167,,keyboard,airplane,1111_cc_dnn_1_airplane5-bicycle1.png,,,1
ResNeXt101_32x16d_swsl,168,,chair,airplane,1111_cc_dnn_1_airplane6-chair3.png,,,1
ResNeXt101_32x16d_swsl,169,,chair,airplane,1111_cc_dnn_1_airplane8-bicycle3.png,,,1
ResNeXt101_32x16d_swsl,170,,bottle,airplane,1111_cc_dnn_1_airplane8-clock2.png,,,1
ResNeXt101_32x16d_swsl,171,,chair,airplane,1111_cc_dnn_1_airplane8-truck3.png,,,1
ResNeXt101_32x16d_swsl,172,,keyboard,airplane,1111_cc_dnn_1_airplane9-keyboard2.png,,,1
ResNeXt101_32x16d_swsl,173,,bear,bear,1111_cc_dnn_1_bear1-airplane3.png,,,1
ResNeXt101_32x16d_swsl,174,,bear,bear,1111_cc_dnn_1_bear1-bicycle3.png,,,1
ResNeXt101_32x16d_swsl,175,,bottle,bear,1111_cc_dnn_1_bear10-bottle1.png,,,1
ResNeXt101_32x16d_swsl,176,,keyboard,bear,1111_cc_dnn_1_bear10-clock1.png,,,1
ResNeXt101_32x16d_swsl,177,,knife,bear,1111_cc_dnn_1_bear10-knife2.png,,,1
ResNeXt101_32x16d_swsl,178,,keyboard,bear,1111_cc_dnn_1_bear2-keyboard2.png,,,1
ResNeXt101_32x16d_swsl,179,,chair,bear,1111_cc_dnn_1_bear3-chair2.png,,,1
ResNeXt101_32x16d_swsl,180,,bottle,bear,1111_cc_dnn_1_bear4-oven2.png,,,1
ResNeXt101_32x16d_swsl,181,,clock,bear,1111_cc_dnn_1_bear6-clock1.png,,,1
ResNeXt101_32x16d_swsl,182,,truck,bear,1111_cc_dnn_1_bear7-oven3.png,,,1
ResNeXt101_32x16d_swsl,183,,bottle,bear,1111_cc_dnn_1_bear8-bottle1.png,,,1
ResNeXt101_32x16d_swsl,184,,bear,bear,1111_cc_dnn_1_bear8-dog1.png,,,1
ResNeXt101_32x16d_swsl,185,,elephant,bear,1111_cc_dnn_1_bear8-elephant2.png,,,1
ResNeXt101_32x16d_swsl,186,,keyboard,bear,1111_cc_dnn_1_bear9-keyboard3.png,,,1
ResNeXt101_32x16d_swsl,187,,knife,bear,1111_cc_dnn_1_bear9-knife2.png,,,1
ResNeXt101_32x16d_swsl,188,,clock,bicycle,1111_cc_dnn_1_bicycle1-clock3.png,,,1
ResNeXt101_32x16d_swsl,189,,bicycle,bicycle,1111_cc_dnn_1_bicycle1-dog3.png,,,1
ResNeXt101_32x16d_swsl,190,,bicycle,bicycle,1111_cc_dnn_1_bicycle1-oven1.png,,,1
ResNeXt101_32x16d_swsl,191,,bicycle,bicycle,1111_cc_dnn_1_bicycle10-boat3.png,,,1
ResNeXt101_32x16d_swsl,192,,cat,bicycle,1111_cc_dnn_1_bicycle2-dog1.png,,,1
ResNeXt101_32x16d_swsl,193,,bicycle,bicycle,1111_cc_dnn_1_bicycle3-bird1.png,,,1
ResNeXt101_32x16d_swsl,194,,bottle,bicycle,1111_cc_dnn_1_bicycle3-elephant2.png,,,1
ResNeXt101_32x16d_swsl,195,,knife,bicycle,1111_cc_dnn_1_bicycle3-oven3.png,,,1
ResNeXt101_32x16d_swsl,196,,keyboard,bicycle,1111_cc_dnn_1_bicycle4-oven3.png,,,1
ResNeXt101_32x16d_swsl,197,,chair,bicycle,1111_cc_dnn_1_bicycle4-truck3.png,,,1
ResNeXt101_32x16d_swsl,198,,bicycle,bicycle,1111_cc_dnn_1_bicycle5-car3.png,,,1
ResNeXt101_32x16d_swsl,199,,bicycle,bicycle,1111_cc_dnn_1_bicycle7-clock3.png,,,1
ResNeXt101_32x16d_swsl,200,,chair,bicycle,1111_cc_dnn_1_bicycle9-chair1.png,,,1
ResNeXt101_32x16d_swsl,201,,elephant,bird,1111_cc_dnn_1_bird1-elephant2.png,,,1
ResNeXt101_32x16d_swsl,202,,chair,bird,1111_cc_dnn_1_bird1-oven1.png,,,1
ResNeXt101_32x16d_swsl,203,,clock,bird,1111_cc_dnn_1_bird10-clock1.png,,,1
ResNeXt101_32x16d_swsl,204,,elephant,bird,1111_cc_dnn_1_bird10-elephant2.png,,,1
ResNeXt101_32x16d_swsl,205,,bicycle,bird,1111_cc_dnn_1_bird2-airplane3.png,,,1
ResNeXt101_32x16d_swsl,206,,truck,bird,1111_cc_dnn_1_bird5-truck2.png,,,1
ResNeXt101_32x16d_swsl,207,,boat,bird,1111_cc_dnn_1_bird6-airplane2.png,,,1
ResNeXt101_32x16d_swsl,208,,chair,bird,1111_cc_dnn_1_bird6-car3.png,,,1
ResNeXt101_32x16d_swsl,209,,elephant,bird,1111_cc_dnn_1_bird8-elephant1.png,,,1
ResNeXt101_32x16d_swsl,210,,keyboard,bird,1111_cc_dnn_1_bird8-keyboard2.png,,,1
ResNeXt101_32x16d_swsl,211,,bear,bird,1111_cc_dnn_1_bird9-bear3.png,,,1
ResNeXt101_32x16d_swsl,212,,bird,bird,1111_cc_dnn_1_bird9-dog2.png,,,1
ResNeXt101_32x16d_swsl,213,,cat,boat,1111_cc_dnn_1_boat10-cat1.png,,,1
ResNeXt101_32x16d_swsl,214,,bottle,boat,1111_cc_dnn_1_boat2-bird1.png,,,1
ResNeXt101_32x16d_swsl,215,,bottle,boat,1111_cc_dnn_1_boat2-bottle2.png,,,1
ResNeXt101_32x16d_swsl,216,,keyboard,boat,1111_cc_dnn_1_boat2-oven3.png,,,1
ResNeXt101_32x16d_swsl,217,,boat,boat,1111_cc_dnn_1_boat3-airplane2.png,,,1
ResNeXt101_32x16d_swsl,218,,boat,boat,1111_cc_dnn_1_boat3-car3.png,,,1
ResNeXt101_32x16d_swsl,219,,clock,boat,1111_cc_dnn_1_boat3-clock3.png,,,1
ResNeXt101_32x16d_swsl,220,,bottle,boat,1111_cc_dnn_1_boat4-dog2.png,,,1
ResNeXt101_32x16d_swsl,221,,boat,boat,1111_cc_dnn_1_boat5-car3.png,,,1
ResNeXt101_32x16d_swsl,222,,boat,boat,1111_cc_dnn_1_boat6-car1.png,,,1
ResNeXt101_32x16d_swsl,223,,bear,boat,1111_cc_dnn_1_boat6-dog1.png,,,1
ResNeXt101_32x16d_swsl,224,,bottle,boat,1111_cc_dnn_1_boat7-bottle1.png,,,1
ResNeXt101_32x16d_swsl,225,,bottle,boat,1111_cc_dnn_1_boat7-cat3.png,,,1
ResNeXt101_32x16d_swsl,226,,bottle,boat,1111_cc_dnn_1_boat7-keyboard3.png,,,1
ResNeXt101_32x16d_swsl,227,,knife,boat,1111_cc_dnn_1_boat9-bird1.png,,,1
ResNeXt101_32x16d_swsl,228,,bottle,bottle,1111_cc_dnn_1_bottle1-cat3.png,,,1
ResNeXt101_32x16d_swsl,229,,bottle,bottle,1111_cc_dnn_1_bottle3-cat3.png,,,1
ResNeXt101_32x16d_swsl,230,,bottle,bottle,1111_cc_dnn_1_bottle3-chair3.png,,,1
ResNeXt101_32x16d_swsl,231,,bottle,bottle,1111_cc_dnn_1_bottle3-knife3.png,,,1
ResNeXt101_32x16d_swsl,232,,bottle,bottle,1111_cc_dnn_1_bottle5-knife1.png,,,1
ResNeXt101_32x16d_swsl,233,,bottle,bottle,1111_cc_dnn_1_bottle5-truck1.png,,,1
ResNeXt101_32x16d_swsl,234,,bottle,bottle,1111_cc_dnn_1_bottle7-bear1.png,,,1
ResNeXt101_32x16d_swsl,235,,bottle,bottle,1111_cc_dnn_1_bottle8-bicycle1.png,,,1
ResNeXt101_32x16d_swsl,236,,bottle,bottle,1111_cc_dnn_1_bottle9-keyboard1.png,,,1
ResNeXt101_32x16d_swsl,237,,bottle,bottle,1111_cc_dnn_1_bottle9-truck1.png,,,1
ResNeXt101_32x16d_swsl,238,,car,car,1111_cc_dnn_1_car1-airplane1.png,,,1
ResNeXt101_32x16d_swsl,239,,chair,car,1111_cc_dnn_1_car1-chair3.png,,,1
ResNeXt101_32x16d_swsl,240,,car,car,1111_cc_dnn_1_car10-bicycle2.png,,,1
ResNeXt101_32x16d_swsl,241,,bear,car,1111_cc_dnn_1_car10-dog1.png,,,1
ResNeXt101_32x16d_swsl,242,,elephant,car,1111_cc_dnn_1_car10-elephant2.png,,,1
ResNeXt101_32x16d_swsl,243,,keyboard,car,1111_cc_dnn_1_car10-keyboard2.png,,,1
ResNeXt101_32x16d_swsl,244,,car,car,1111_cc_dnn_1_car2-bird3.png,,,1
ResNeXt101_32x16d_swsl,245,,bottle,car,1111_cc_dnn_1_car2-cat3.png,,,1
ResNeXt101_32x16d_swsl,246,,knife,car,1111_cc_dnn_1_car2-knife3.png,,,1
ResNeXt101_32x16d_swsl,247,,elephant,car,1111_cc_dnn_1_car3-elephant3.png,,,1
ResNeXt101_32x16d_swsl,248,,cat,car,1111_cc_dnn_1_car4-bear3.png,,,1
ResNeXt101_32x16d_swsl,249,,bottle,car,1111_cc_dnn_1_car4-bird1.png,,,1
ResNeXt101_32x16d_swsl,250,,car,car,1111_cc_dnn_1_car4-boat1.png,,,1
ResNeXt101_32x16d_swsl,251,,car,car,1111_cc_dnn_1_car5-knife2.png,,,1
ResNeXt101_32x16d_swsl,252,,car,car,1111_cc_dnn_1_car5-truck3.png,,,1
ResNeXt101_32x16d_swsl,253,,chair,car,1111_cc_dnn_1_car6-chair3.png,,,1
ResNeXt101_32x16d_swsl,254,,bear,car,1111_cc_dnn_1_car7-dog3.png,,,1
ResNeXt101_32x16d_swsl,255,,car,car,1111_cc_dnn_1_car8-bicycle2.png,,,1
ResNeXt101_32x16d_swsl,256,,cat,car,1111_cc_dnn_1_car8-cat1.png,,,1
ResNeXt101_32x16d_swsl,257,,car,car,1111_cc_dnn_1_car8-chair1.png,,,1
ResNeXt101_32x16d_swsl,258,,car,car,1111_cc_dnn_1_car9-bicycle2.png,,,1
ResNeXt101_32x16d_swsl,259,,cat,cat,1111_cc_dnn_1_cat1-airplane1.png,,,1
ResNeXt101_32x16d_swsl,260,,cat,cat,1111_cc_dnn_1_cat1-car2.png,,,1
ResNeXt101_32x16d_swsl,261,,cat,cat,1111_cc_dnn_1_cat1-dog1.png,,,1
ResNeXt101_32x16d_swsl,262,,cat,cat,1111_cc_dnn_1_cat10-bird2.png,,,1
ResNeXt101_32x16d_swsl,263,,clock,cat,1111_cc_dnn_1_cat10-clock1.png,,,1
ResNeXt101_32x16d_swsl,264,,elephant,cat,1111_cc_dnn_1_cat10-elephant3.png,,,1
ResNeXt101_32x16d_swsl,265,,cat,cat,1111_cc_dnn_1_cat2-bottle3.png,,,1
ResNeXt101_32x16d_swsl,266,,truck,cat,1111_cc_dnn_1_cat3-oven2.png,,,1
ResNeXt101_32x16d_swsl,267,,bottle,cat,1111_cc_dnn_1_cat5-airplane2.png,,,1
ResNeXt101_32x16d_swsl,268,,bottle,cat,1111_cc_dnn_1_cat5-bottle1.png,,,1
ResNeXt101_32x16d_swsl,269,,bottle,cat,1111_cc_dnn_1_cat5-chair3.png,,,1
ResNeXt101_32x16d_swsl,270,,cat,cat,1111_cc_dnn_1_cat5-dog3.png,,,1
ResNeXt101_32x16d_swsl,271,,elephant,cat,1111_cc_dnn_1_cat5-elephant2.png,,,1
ResNeXt101_32x16d_swsl,272,,knife,cat,1111_cc_dnn_1_cat5-knife2.png,,,1
ResNeXt101_32x16d_swsl,273,,cat,cat,1111_cc_dnn_1_cat9-bird3.png,,,1
ResNeXt101_32x16d_swsl,274,,bottle,chair,1111_cc_dnn_1_chair1-cat3.png,,,1
ResNeXt101_32x16d_swsl,275,,bottle,chair,1111_cc_dnn_1_chair1-truck3.png,,,1
ResNeXt101_32x16d_swsl,276,,chair,chair,1111_cc_dnn_1_chair10-airplane2.png,,,1
ResNeXt101_32x16d_swsl,277,,chair,chair,1111_cc_dnn_1_chair10-bird3.png,,,1
ResNeXt101_32x16d_swsl,278,,chair,chair,1111_cc_dnn_1_chair10-bottle3.png,,,1
ResNeXt101_32x16d_swsl,279,,bottle,chair,1111_cc_dnn_1_chair4-oven2.png,,,1
ResNeXt101_32x16d_swsl,280,,bottle,chair,1111_cc_dnn_1_chair4-truck2.png,,,1
ResNeXt101_32x16d_swsl,281,,bird,chair,1111_cc_dnn_1_chair5-bird1.png,,,1
ResNeXt101_32x16d_swsl,282,,cat,chair,1111_cc_dnn_1_chair5-cat3.png,,,1
ResNeXt101_32x16d_swsl,283,,chair,chair,1111_cc_dnn_1_chair7-boat3.png,,,1
ResNeXt101_32x16d_swsl,284,,chair,chair,1111_cc_dnn_1_chair7-truck3.png,,,1
ResNeXt101_32x16d_swsl,285,,bottle,chair,1111_cc_dnn_1_chair8-keyboard3.png,,,1
ResNeXt101_32x16d_swsl,286,,knife,chair,1111_cc_dnn_1_chair8-knife2.png,,,1
ResNeXt101_32x16d_swsl,287,,chair,chair,1111_cc_dnn_1_chair9-bird3.png,,,1
ResNeXt101_32x16d_swsl,288,,chair,chair,1111_cc_dnn_1_chair9-boat2.png,,,1
ResNeXt101_32x16d_swsl,289,,bear,clock,1111_cc_dnn_1_clock1-bear1.png,,,1
ResNeXt101_32x16d_swsl,290,,boat,clock,1111_cc_dnn_1_clock1-boat3.png,,,1
ResNeXt101_32x16d_swsl,291,,truck,clock,1111_cc_dnn_1_clock1-truck3.png,,,1
ResNeXt101_32x16d_swsl,292,,clock,clock,1111_cc_dnn_1_clock2-bear2.png,,,1
ResNeXt101_32x16d_swsl,293,,clock,clock,1111_cc_dnn_1_clock2-knife1.png,,,1
ResNeXt101_32x16d_swsl,294,,clock,clock,1111_cc_dnn_1_clock3-bear3.png,,,1
ResNeXt101_32x16d_swsl,295,,clock,clock,1111_cc_dnn_1_clock3-car2.png,,,1
ResNeXt101_32x16d_swsl,296,,clock,clock,1111_cc_dnn_1_clock3-cat1.png,,,1
ResNeXt101_32x16d_swsl,297,,elephant,clock,1111_cc_dnn_1_clock3-elephant3.png,,,1
ResNeXt101_32x16d_swsl,298,,clock,clock,1111_cc_dnn_1_clock4-airplane1.png,,,1
ResNeXt101_32x16d_swsl,299,,clock,clock,1111_cc_dnn_1_clock4-boat3.png,,,1
ResNeXt101_32x16d_swsl,300,,clock,clock,1111_cc_dnn_1_clock6-bird3.png,,,1
ResNeXt101_32x16d_swsl,301,,clock,clock,1111_cc_dnn_1_clock6-chair3.png,,,1
ResNeXt101_32x16d_swsl,302,,clock,clock,1111_cc_dnn_1_clock6-knife2.png,,,1
ResNeXt101_32x16d_swsl,303,,clock,clock,1111_cc_dnn_1_clock7-cat2.png,,,1
ResNeXt101_32x16d_swsl,304,,clock,clock,1111_cc_dnn_1_clock8-airplane2.png,,,1
ResNeXt101_32x16d_swsl,305,,clock,clock,1111_cc_dnn_1_clock9-airplane1.png,,,1
ResNeXt101_32x16d_swsl,306,,clock,clock,1111_cc_dnn_1_clock9-cat1.png,,,1
ResNeXt101_32x16d_swsl,307,,clock,clock,1111_cc_dnn_1_clock9-chair3.png,,,1
ResNeXt101_32x16d_swsl,308,,bear,dog,1111_cc_dnn_1_dog1-bear1.png,,,1
ResNeXt101_32x16d_swsl,309,,dog,dog,1111_cc_dnn_1_dog1-bird1.png,,,1
ResNeXt101_32x16d_swsl,310,,clock,dog,1111_cc_dnn_1_dog1-boat3.png,,,1
ResNeXt101_32x16d_swsl,311,,keyboard,dog,1111_cc_dnn_1_dog10-keyboard2.png,,,1
ResNeXt101_32x16d_swsl,312,,bottle,dog,1111_cc_dnn_1_dog2-bottle2.png,,,1
ResNeXt101_32x16d_swsl,313,,bear,dog,1111_cc_dnn_1_dog3-bear3.png,,,1
ResNeXt101_32x16d_swsl,314,,dog,dog,1111_cc_dnn_1_dog4-bird1.png,,,1
ResNeXt101_32x16d_swsl,315,,chair,dog,1111_cc_dnn_1_dog4-chair1.png,,,1
ResNeXt101_32x16d_swsl,316,,bottle,dog,1111_cc_dnn_1_dog4-oven1.png,,,1
ResNeXt101_32x16d_swsl,317,,dog,dog,1111_cc_dnn_1_dog5-bear3.png,,,1
ResNeXt101_32x16d_swsl,318,,dog,dog,1111_cc_dnn_1_dog6-clock1.png,,,1
ResNeXt101_32x16d_swsl,319,,bottle,dog,1111_cc_dnn_1_dog7-keyboard3.png,,,1
ResNeXt101_32x16d_swsl,320,,bottle,dog,1111_cc_dnn_1_dog8-clock2.png,,,1
ResNeXt101_32x16d_swsl,321,,bottle,dog,1111_cc_dnn_1_dog9-bottle1.png,,,1
ResNeXt101_32x16d_swsl,322,,bicycle,dog,1111_cc_dnn_1_dog9-car1.png,,,1
ResNeXt101_32x16d_swsl,323,,elephant,elephant,1111_cc_dnn_1_elephant1-boat2.png,,,1
ResNeXt101_32x16d_swsl,324,,elephant,elephant,1111_cc_dnn_1_elephant1-bottle1.png,,,1
ResNeXt101_32x16d_swsl,325,,chair,elephant,1111_cc_dnn_1_elephant1-car3.png,,,1
ResNeXt101_32x16d_swsl,326,,elephant,elephant,1111_cc_dnn_1_elephant10-knife3.png,,,1
ResNeXt101_32x16d_swsl,327,,bottle,elephant,1111_cc_dnn_1_elephant2-bird1.png,,,1
ResNeXt101_32x16d_swsl,328,,bottle,elephant,1111_cc_dnn_1_elephant2-boat1.png,,,1
ResNeXt101_32x16d_swsl,329,,elephant,elephant,1111_cc_dnn_1_elephant2-bottle3.png,,,1
ResNeXt101_32x16d_swsl,330,,bottle,elephant,1111_cc_dnn_1_elephant2-keyboard3.png,,,1
ResNeXt101_32x16d_swsl,331,,bear,elephant,1111_cc_dnn_1_elephant3-cat2.png,,,1
ResNeXt101_32x16d_swsl,332,,bottle,elephant,1111_cc_dnn_1_elephant3-keyboard2.png,,,1
ResNeXt101_32x16d_swsl,333,,elephant,elephant,1111_cc_dnn_1_elephant4-clock3.png,,,1
ResNeXt101_32x16d_swsl,334,,elephant,elephant,1111_cc_dnn_1_elephant4-oven1.png,,,1
ResNeXt101_32x16d_swsl,335,,bottle,elephant,1111_cc_dnn_1_elephant5-bottle2.png,,,1
ResNeXt101_32x16d_swsl,336,,elephant,elephant,1111_cc_dnn_1_elephant6-car3.png,,,1
ResNeXt101_32x16d_swsl,337,,bear,elephant,1111_cc_dnn_1_elephant7-keyboard3.png,,,1
ResNeXt101_32x16d_swsl,338,,elephant,elephant,1111_cc_dnn_1_elephant7-knife2.png,,,1
ResNeXt101_32x16d_swsl,339,,boat,elephant,1111_cc_dnn_1_elephant8-boat2.png,,,1
ResNeXt101_32x16d_swsl,340,,bear,elephant,1111_cc_dnn_1_elephant8-cat1.png,,,1
ResNeXt101_32x16d_swsl,341,,bottle,elephant,1111_cc_dnn_1_elephant8-clock2.png,,,1
ResNeXt101_32x16d_swsl,342,,bear,elephant,1111_cc_dnn_1_elephant8-dog1.png,,,1
ResNeXt101_32x16d_swsl,343,,bottle,elephant,1111_cc_dnn_1_elephant9-airplane2.png,,,1
ResNeXt101_32x16d_swsl,344,,elephant,elephant,1111_cc_dnn_1_elephant9-bicycle2.png,,,1
ResNeXt101_32x16d_swsl,345,,elephant,elephant,1111_cc_dnn_1_elephant9-boat3.png,,,1
ResNeXt101_32x16d_swsl,346,,bottle,keyboard,1111_cc_dnn_1_keyboard1-airplane2.png,,,1
ResNeXt101_32x16d_swsl,347,,keyboard,keyboard,1111_cc_dnn_1_keyboard1-clock1.png,,,1
ResNeXt101_32x16d_swsl,348,,keyboard,keyboard,1111_cc_dnn_1_keyboard10-oven3.png,,,1
ResNeXt101_32x16d_swsl,349,,chair,keyboard,1111_cc_dnn_1_keyboard3-bicycle2.png,,,1
ResNeXt101_32x16d_swsl,350,,cat,keyboard,1111_cc_dnn_1_keyboard4-cat2.png,,,1
ResNeXt101_32x16d_swsl,351,,truck,keyboard,1111_cc_dnn_1_keyboard4-truck3.png,,,1
ResNeXt101_32x16d_swsl,352,,keyboard,keyboard,1111_cc_dnn_1_keyboard6-bicycle1.png,,,1
ResNeXt101_32x16d_swsl,353,,bottle,keyboard,1111_cc_dnn_1_keyboard6-bottle2.png,,,1
ResNeXt101_32x16d_swsl,354,,knife,keyboard,1111_cc_dnn_1_keyboard7-knife1.png,,,1
ResNeXt101_32x16d_swsl,355,,keyboard,keyboard,1111_cc_dnn_1_keyboard8-oven1.png,,,1
ResNeXt101_32x16d_swsl,356,,boat,keyboard,1111_cc_dnn_1_keyboard9-airplane3.png,,,1
ResNeXt101_32x16d_swsl,357,,bear,keyboard,1111_cc_dnn_1_keyboard9-bear2.png,,,1
ResNeXt101_32x16d_swsl,358,,boat,keyboard,1111_cc_dnn_1_keyboard9-boat2.png,,,1
ResNeXt101_32x16d_swsl,359,,keyboard,keyboard,1111_cc_dnn_1_keyboard9-truck3.png,,,1
ResNeXt101_32x16d_swsl,360,,bear,knife,1111_cc_dnn_1_knife1-dog1.png,,,1
ResNeXt101_32x16d_swsl,361,,elephant,knife,1111_cc_dnn_1_knife1-elephant1.png,,,1
ResNeXt101_32x16d_swsl,362,,chair,knife,1111_cc_dnn_1_knife10-chair1.png,,,1
ResNeXt101_32x16d_swsl,363,,knife,knife,1111_cc_dnn_1_knife10-keyboard3.png,,,1
ResNeXt101_32x16d_swsl,364,,bear,knife,1111_cc_dnn_1_knife2-bear2.png,,,1
ResNeXt101_32x16d_swsl,365,,chair,knife,1111_cc_dnn_1_knife2-car3.png,,,1
ResNeXt101_32x16d_swsl,366,,bear,knife,1111_cc_dnn_1_knife2-dog1.png,,,1
ResNeXt101_32x16d_swsl,367,,elephant,knife,1111_cc_dnn_1_knife2-elephant2.png,,,1
ResNeXt101_32x16d_swsl,368,,oven,knife,1111_cc_dnn_1_knife5-oven2.png,,,1
ResNeXt101_32x16d_swsl,369,,boat,knife,1111_cc_dnn_1_knife6-boat3.png,,,1
ResNeXt101_32x16d_swsl,370,,keyboard,knife,1111_cc_dnn_1_knife6-oven3.png,,,1
ResNeXt101_32x16d_swsl,371,,knife,knife,1111_cc_dnn_1_knife7-car2.png,,,1
ResNeXt101_32x16d_swsl,372,,bottle,knife,1111_cc_dnn_1_knife7-chair2.png,,,1
ResNeXt101_32x16d_swsl,373,,boat,knife,1111_cc_dnn_1_knife8-bicycle1.png,,,1
ResNeXt101_32x16d_swsl,374,,bicycle,knife,1111_cc_dnn_1_knife9-bicycle1.png,,,1
ResNeXt101_32x16d_swsl,375,,bottle,knife,1111_cc_dnn_1_knife9-bottle2.png,,,1
ResNeXt101_32x16d_swsl,376,,oven,oven,1111_cc_dnn_1_oven1-boat3.png,,,1
ResNeXt101_32x16d_swsl,377,,oven,oven,1111_cc_dnn_1_oven2-truck3.png,,,1
ResNeXt101_32x16d_swsl,378,,bottle,oven,1111_cc_dnn_1_oven3-bear2.png,,,1
ResNeXt101_32x16d_swsl,379,,keyboard,oven,1111_cc_dnn_1_oven3-truck1.png,,,1
ResNeXt101_32x16d_swsl,380,,keyboard,oven,1111_cc_dnn_1_oven5-keyboard2.png,,,1
ResNeXt101_32x16d_swsl,381,,bottle,oven,1111_cc_dnn_1_oven6-knife3.png,,,1
ResNeXt101_32x16d_swsl,382,,oven,oven,1111_cc_dnn_1_oven6-truck1.png,,,1
ResNeXt101_32x16d_swsl,383,,bottle,oven,1111_cc_dnn_1_oven7-clock2.png,,,1
ResNeXt101_32x16d_swsl,384,,dog,oven,1111_cc_dnn_1_oven7-dog2.png,,,1
ResNeXt101_32x16d_swsl,385,,chair,oven,1111_cc_dnn_1_oven9-bear2.png,,,1
ResNeXt101_32x16d_swsl,386,,truck,truck,1111_cc_dnn_1_truck1-bear1.png,,,1
ResNeXt101_32x16d_swsl,387,,cat,truck,1111_cc_dnn_1_truck1-cat1.png,,,1
ResNeXt101_32x16d_swsl,388,,truck,truck,1111_cc_dnn_1_truck1-knife1.png,,,1
ResNeXt101_32x16d_swsl,389,,truck,truck,1111_cc_dnn_1_truck10-bicycle1.png,,,1
ResNeXt101_32x16d_swsl,390,,truck,truck,1111_cc_dnn_1_truck2-airplane3.png,,,1
ResNeXt101_32x16d_swsl,391,,bicycle,truck,1111_cc_dnn_1_truck2-bicycle2.png,,,1
ResNeXt101_32x16d_swsl,392,,truck,truck,1111_cc_dnn_1_truck2-boat3.png,,,1
ResNeXt101_32x16d_swsl,393,,bottle,truck,1111_cc_dnn_1_truck2-bottle3.png,,,1
ResNeXt101_32x16d_swsl,394,,truck,truck,1111_cc_dnn_1_truck2-car3.png,,,1
ResNeXt101_32x16d_swsl,395,,car,truck,1111_cc_dnn_1_truck2-chair1.png,,,1
ResNeXt101_32x16d_swsl,396,,car,truck,1111_cc_dnn_1_truck3-bicycle1.png,,,1
ResNeXt101_32x16d_swsl,397,,truck,truck,1111_cc_dnn_1_truck3-bird2.png,,,1
ResNeXt101_32x16d_swsl,398,,truck,truck,1111_cc_dnn_1_truck3-car3.png,,,1
ResNeXt101_32x16d_swsl,399,,truck,truck,1111_cc_dnn_1_truck5-car1.png,,,1
ResNeXt101_32x16d_swsl,400,,elephant,truck,1111_cc_dnn_1_truck8-elephant1.png,,,1
