subj,trial,rt,object_response,category,imagename,age,block,difficulty
resnext101_32x8d,1,,airplane,airplane,1111_cc_dnn_0_airplane_40_n02690373_1071.JPEG,,,0
resnext101_32x8d,2,,airplane,airplane,1111_cc_dnn_0_airplane_40_n02690373_19152.JPEG,,,0
resnext101_32x8d,3,,airplane,airplane,1111_cc_dnn_0_airplane_40_n02690373_2024.JPEG,,,0
resnext101_32x8d,4,,airplane,airplane,1111_cc_dnn_0_airplane_40_n02690373_2070.JPEG,,,0
resnext101_32x8d,5,,airplane,airplane,1111_cc_dnn_0_airplane_40_n02690373_3874.JPEG,,,0
resnext101_32x8d,6,,airplane,airplane,1111_cc_dnn_0_airplane_40_n02690373_4243.JPEG,,,0
resnext101_32x8d,7,,airplane,airplane,1111_cc_dnn_0_airplane_40_n02690373_4728.JPEG,,,0
resnext101_32x8d,8,,airplane,airplane,1111_cc_dnn_0_airplane_40_n02690373_6853.JPEG,,,0
resnext101_32x8d,9,,airplane,airplane,1111_cc_dnn_0_airplane_40_n02690373_6999.JPEG,,,0
resnext101_32x8d,10,,airplane,airplane,1111_cc_dnn_0_airplane_40_n02690373_8789.JPEG,,,0
resnext101_32x8d,11,,bear,bear,1111_cc_dnn_0_bear_40_n02132136_1934.JPEG,,,0
resnext101_32x8d,12,,bear,bear,1111_cc_dnn_0_bear_40_n02132136_6787.JPEG,,,0
resnext101_32x8d,13,,bear,bear,1111_cc_dnn_0_bear_40_n02133161_2137.JPEG,,,0
resnext101_32x8d,14,,bear,bear,1111_cc_dnn_0_bear_40_n02134084_2004.JPEG,,,0
resnext101_32x8d,15,,bear,bear,1111_cc_dnn_0_bear_40_n02134084_5027.JPEG,,,0
resnext101_32x8d,16,,bear,bear,1111_cc_dnn_0_bear_40_n02134084_6343.JPEG,,,0
resnext101_32x8d,17,,bear,bear,1111_cc_dnn_0_bear_40_n02134418_4041.JPEG,,,0
resnext101_32x8d,18,,bear,bear,1111_cc_dnn_0_bear_40_n02134418_4886.JPEG,,,0
resnext101_32x8d,19,,bear,bear,1111_cc_dnn_0_bear_40_n02134418_4895.JPEG,,,0
resnext101_32x8d,20,,bear,bear,1111_cc_dnn_0_bear_40_n02134418_703.JPEG,,,0
resnext101_32x8d,21,,bicycle,bicycle,1111_cc_dnn_0_bicycle_40_n02835271_13131.JPEG,,,0
resnext101_32x8d,22,,bicycle,bicycle,1111_cc_dnn_0_bicycle_40_n02835271_276.JPEG,,,0
resnext101_32x8d,23,,bicycle,bicycle,1111_cc_dnn_0_bicycle_40_n03792782_14216.JPEG,,,0
resnext101_32x8d,24,,bicycle,bicycle,1111_cc_dnn_0_bicycle_40_n03792782_17337.JPEG,,,0
resnext101_32x8d,25,,bicycle,bicycle,1111_cc_dnn_0_bicycle_40_n03792782_3047.JPEG,,,0
resnext101_32x8d,26,,bicycle,bicycle,1111_cc_dnn_0_bicycle_40_n03792782_33855.JPEG,,,0
resnext101_32x8d,27,,bicycle,bicycle,1111_cc_dnn_0_bicycle_40_n03792782_3467.JPEG,,,0
resnext101_32x8d,28,,bicycle,bicycle,1111_cc_dnn_0_bicycle_40_n03792782_3631.JPEG,,,0
resnext101_32x8d,29,,bicycle,bicycle,1111_cc_dnn_0_bicycle_40_n03792782_52601.JPEG,,,0
resnext101_32x8d,30,,bicycle,bicycle,1111_cc_dnn_0_bicycle_40_n03792782_692.JPEG,,,0
resnext101_32x8d,31,,bird,bird,1111_cc_dnn_0_bird_40_n01530575_4260.JPEG,,,0
resnext101_32x8d,32,,bird,bird,1111_cc_dnn_0_bird_40_n01532829_22520.JPEG,,,0
resnext101_32x8d,33,,bird,bird,1111_cc_dnn_0_bird_40_n01537544_2772.JPEG,,,0
resnext101_32x8d,34,,bird,bird,1111_cc_dnn_0_bird_40_n01601694_13334.JPEG,,,0
resnext101_32x8d,35,,bird,bird,1111_cc_dnn_0_bird_40_n01843383_8077.JPEG,,,0
resnext101_32x8d,36,,bird,bird,1111_cc_dnn_0_bird_40_n02007558_10725.JPEG,,,0
resnext101_32x8d,37,,bird,bird,1111_cc_dnn_0_bird_40_n02025239_22501.JPEG,,,0
resnext101_32x8d,38,,bird,bird,1111_cc_dnn_0_bird_40_n02033041_6633.JPEG,,,0
resnext101_32x8d,39,,bird,bird,1111_cc_dnn_0_bird_40_n02037110_11551.JPEG,,,0
resnext101_32x8d,40,,bird,bird,1111_cc_dnn_0_bird_40_n02037110_8732.JPEG,,,0
resnext101_32x8d,41,,boat,boat,1111_cc_dnn_0_boat_40_n02951358_15424.JPEG,,,0
resnext101_32x8d,42,,boat,boat,1111_cc_dnn_0_boat_40_n02951358_2853.JPEG,,,0
resnext101_32x8d,43,,boat,boat,1111_cc_dnn_0_boat_40_n02951358_34441.JPEG,,,0
resnext101_32x8d,44,,boat,boat,1111_cc_dnn_0_boat_40_n02951358_4826.JPEG,,,0
resnext101_32x8d,45,,boat,boat,1111_cc_dnn_0_boat_40_n02951358_5718.JPEG,,,0
resnext101_32x8d,46,,boat,boat,1111_cc_dnn_0_boat_40_n03344393_302.JPEG,,,0
resnext101_32x8d,47,,boat,boat,1111_cc_dnn_0_boat_40_n04273569_13091.JPEG,,,0
resnext101_32x8d,48,,boat,boat,1111_cc_dnn_0_boat_40_n04612504_30742.JPEG,,,0
resnext101_32x8d,49,,boat,boat,1111_cc_dnn_0_boat_40_n04612504_7166.JPEG,,,0
resnext101_32x8d,50,,boat,boat,1111_cc_dnn_0_boat_40_n04612504_8942.JPEG,,,0
resnext101_32x8d,51,,bottle,bottle,1111_cc_dnn_0_bottle_40_n02823428_825.JPEG,,,0
resnext101_32x8d,52,,bottle,bottle,1111_cc_dnn_0_bottle_40_n03937543_2357.JPEG,,,0
resnext101_32x8d,53,,bottle,bottle,1111_cc_dnn_0_bottle_40_n04560804_12278.JPEG,,,0
resnext101_32x8d,54,,bottle,bottle,1111_cc_dnn_0_bottle_40_n04560804_13773.JPEG,,,0
resnext101_32x8d,55,,bottle,bottle,1111_cc_dnn_0_bottle_40_n04560804_32398.JPEG,,,0
resnext101_32x8d,56,,bottle,bottle,1111_cc_dnn_0_bottle_40_n04560804_9813.JPEG,,,0
resnext101_32x8d,57,,bottle,bottle,1111_cc_dnn_0_bottle_40_n04579145_1302.JPEG,,,0
resnext101_32x8d,58,,bottle,bottle,1111_cc_dnn_0_bottle_40_n04591713_2718.JPEG,,,0
resnext101_32x8d,59,,bottle,bottle,1111_cc_dnn_0_bottle_40_n04591713_5754.JPEG,,,0
resnext101_32x8d,60,,bottle,bottle,1111_cc_dnn_0_bottle_40_n04591713_6238.JPEG,,,0
resnext101_32x8d,61,,car,car,1111_cc_dnn_0_car_40_n02814533_18458.JPEG,,,0
resnext101_32x8d,62,,car,car,1111_cc_dnn_0_car_40_n02814533_23512.JPEG,,,0
resnext101_32x8d,63,,car,car,1111_cc_dnn_0_car_40_n02814533_32461.JPEG,,,0
resnext101_32x8d,64,,car,car,1111_cc_dnn_0_car_40_n02814533_82925.JPEG,,,0
resnext101_32x8d,65,,car,car,1111_cc_dnn_0_car_40_n03100240_418.JPEG,,,0
resnext101_32x8d,66,,car,car,1111_cc_dnn_0_car_40_n03100240_6805.JPEG,,,0
resnext101_32x8d,67,,car,car,1111_cc_dnn_0_car_40_n03100240_6954.JPEG,,,0
resnext101_32x8d,68,,car,car,1111_cc_dnn_0_car_40_n04285008_2789.JPEG,,,0
resnext101_32x8d,69,,car,car,1111_cc_dnn_0_car_40_n04285008_3280.JPEG,,,0
resnext101_32x8d,70,,car,car,1111_cc_dnn_0_car_40_n04285008_9470.JPEG,,,0
resnext101_32x8d,71,,cat,cat,1111_cc_dnn_0_cat_40_n02123045_8774.JPEG,,,0
resnext101_32x8d,72,,cat,cat,1111_cc_dnn_0_cat_40_n02123045_9341.JPEG,,,0
resnext101_32x8d,73,,cat,cat,1111_cc_dnn_0_cat_40_n02123045_964.JPEG,,,0
resnext101_32x8d,74,,cat,cat,1111_cc_dnn_0_cat_40_n02123159_2684.JPEG,,,0
resnext101_32x8d,75,,cat,cat,1111_cc_dnn_0_cat_40_n02123159_3330.JPEG,,,0
resnext101_32x8d,76,,cat,cat,1111_cc_dnn_0_cat_40_n02123394_2364.JPEG,,,0
resnext101_32x8d,77,,cat,cat,1111_cc_dnn_0_cat_40_n02124075_14094.JPEG,,,0
resnext101_32x8d,78,,cat,cat,1111_cc_dnn_0_cat_40_n02124075_8351.JPEG,,,0
resnext101_32x8d,79,,cat,cat,1111_cc_dnn_0_cat_40_n02124075_8754.JPEG,,,0
resnext101_32x8d,80,,cat,cat,1111_cc_dnn_0_cat_40_n02124075_9716.JPEG,,,0
resnext101_32x8d,81,,chair,chair,1111_cc_dnn_0_chair_40_n03376595_2566.JPEG,,,0
resnext101_32x8d,82,,chair,chair,1111_cc_dnn_0_chair_40_n03376595_4309.JPEG,,,0
resnext101_32x8d,83,,chair,chair,1111_cc_dnn_0_chair_40_n03376595_4469.JPEG,,,0
resnext101_32x8d,84,,chair,chair,1111_cc_dnn_0_chair_40_n04099969_13056.JPEG,,,0
resnext101_32x8d,85,,chair,chair,1111_cc_dnn_0_chair_40_n04099969_18182.JPEG,,,0
resnext101_32x8d,86,,chair,chair,1111_cc_dnn_0_chair_40_n04099969_2267.JPEG,,,0
resnext101_32x8d,87,,chair,chair,1111_cc_dnn_0_chair_40_n04099969_2398.JPEG,,,0
resnext101_32x8d,88,,chair,chair,1111_cc_dnn_0_chair_40_n04429376_18127.JPEG,,,0
resnext101_32x8d,89,,chair,chair,1111_cc_dnn_0_chair_40_n04429376_19101.JPEG,,,0
resnext101_32x8d,90,,chair,chair,1111_cc_dnn_0_chair_40_n04429376_9212.JPEG,,,0
resnext101_32x8d,91,,clock,clock,1111_cc_dnn_0_clock_40_n02708093_3459.JPEG,,,0
resnext101_32x8d,92,,clock,clock,1111_cc_dnn_0_clock_40_n03196217_3943.JPEG,,,0
resnext101_32x8d,93,,clock,clock,1111_cc_dnn_0_clock_40_n03196217_4417.JPEG,,,0
resnext101_32x8d,94,,clock,clock,1111_cc_dnn_0_clock_40_n03196217_5252.JPEG,,,0
resnext101_32x8d,95,,clock,clock,1111_cc_dnn_0_clock_40_n03196217_5478.JPEG,,,0
resnext101_32x8d,96,,clock,clock,1111_cc_dnn_0_clock_40_n03196217_585.JPEG,,,0
resnext101_32x8d,97,,clock,clock,1111_cc_dnn_0_clock_40_n03196217_6809.JPEG,,,0
resnext101_32x8d,98,,clock,clock,1111_cc_dnn_0_clock_40_n04548280_1438.JPEG,,,0
resnext101_32x8d,99,,clock,clock,1111_cc_dnn_0_clock_40_n04548280_2518.JPEG,,,0
resnext101_32x8d,100,,clock,clock,1111_cc_dnn_0_clock_40_n04548280_7490.JPEG,,,0
resnext101_32x8d,101,,dog,dog,1111_cc_dnn_0_dog_40_n02088632_2814.JPEG,,,0
resnext101_32x8d,102,,dog,dog,1111_cc_dnn_0_dog_40_n02097130_1834.JPEG,,,0
resnext101_32x8d,103,,dog,dog,1111_cc_dnn_0_dog_40_n02099712_5781.JPEG,,,0
resnext101_32x8d,104,,dog,dog,1111_cc_dnn_0_dog_40_n02101388_2075.JPEG,,,0
resnext101_32x8d,105,,dog,dog,1111_cc_dnn_0_dog_40_n02102318_11816.JPEG,,,0
resnext101_32x8d,106,,dog,dog,1111_cc_dnn_0_dog_40_n02106382_14862.JPEG,,,0
resnext101_32x8d,107,,dog,dog,1111_cc_dnn_0_dog_40_n02108000_324.JPEG,,,0
resnext101_32x8d,108,,dog,dog,1111_cc_dnn_0_dog_40_n02110806_16707.JPEG,,,0
resnext101_32x8d,109,,dog,dog,1111_cc_dnn_0_dog_40_n02112018_370.JPEG,,,0
resnext101_32x8d,110,,dog,dog,1111_cc_dnn_0_dog_40_n02113624_1203.JPEG,,,0
resnext101_32x8d,111,,elephant,elephant,1111_cc_dnn_0_elephant_40_n02504013_1916.JPEG,,,0
resnext101_32x8d,112,,elephant,elephant,1111_cc_dnn_0_elephant_40_n02504013_19694.JPEG,,,0
resnext101_32x8d,113,,elephant,elephant,1111_cc_dnn_0_elephant_40_n02504013_6660.JPEG,,,0
resnext101_32x8d,114,,elephant,elephant,1111_cc_dnn_0_elephant_40_n02504013_8385.JPEG,,,0
resnext101_32x8d,115,,elephant,elephant,1111_cc_dnn_0_elephant_40_n02504458_1848.JPEG,,,0
resnext101_32x8d,116,,elephant,elephant,1111_cc_dnn_0_elephant_40_n02504458_3140.JPEG,,,0
resnext101_32x8d,117,,elephant,elephant,1111_cc_dnn_0_elephant_40_n02504458_4.JPEG,,,0
resnext101_32x8d,118,,elephant,elephant,1111_cc_dnn_0_elephant_40_n02504458_4336.JPEG,,,0
resnext101_32x8d,119,,elephant,elephant,1111_cc_dnn_0_elephant_40_n02504458_4954.JPEG,,,0
resnext101_32x8d,120,,elephant,elephant,1111_cc_dnn_0_elephant_40_n02504458_7013.JPEG,,,0
resnext101_32x8d,121,,keyboard,keyboard,1111_cc_dnn_0_keyboard_40_n03085013_1483.JPEG,,,0
resnext101_32x8d,122,,keyboard,keyboard,1111_cc_dnn_0_keyboard_40_n03085013_17762.JPEG,,,0
resnext101_32x8d,123,,keyboard,keyboard,1111_cc_dnn_0_keyboard_40_n03085013_19436.JPEG,,,0
resnext101_32x8d,124,,keyboard,keyboard,1111_cc_dnn_0_keyboard_40_n03085013_2122.JPEG,,,0
resnext101_32x8d,125,,keyboard,keyboard,1111_cc_dnn_0_keyboard_40_n03085013_25181.JPEG,,,0
resnext101_32x8d,126,,keyboard,keyboard,1111_cc_dnn_0_keyboard_40_n03085013_4160.JPEG,,,0
resnext101_32x8d,127,,keyboard,keyboard,1111_cc_dnn_0_keyboard_40_n04505470_1430.JPEG,,,0
resnext101_32x8d,128,,keyboard,keyboard,1111_cc_dnn_0_keyboard_40_n04505470_2115.JPEG,,,0
resnext101_32x8d,129,,keyboard,keyboard,1111_cc_dnn_0_keyboard_40_n04505470_2570.JPEG,,,0
resnext101_32x8d,130,,keyboard,keyboard,1111_cc_dnn_0_keyboard_40_n04505470_933.JPEG,,,0
resnext101_32x8d,131,,knife,knife,1111_cc_dnn_0_knife_40_n03041632_105081.JPEG,,,0
resnext101_32x8d,132,,knife,knife,1111_cc_dnn_0_knife_40_n03041632_11797.JPEG,,,0
resnext101_32x8d,133,,knife,knife,1111_cc_dnn_0_knife_40_n03041632_14224.JPEG,,,0
resnext101_32x8d,134,,knife,knife,1111_cc_dnn_0_knife_40_n03041632_17338.JPEG,,,0
resnext101_32x8d,135,,knife,knife,1111_cc_dnn_0_knife_40_n03041632_21723.JPEG,,,0
resnext101_32x8d,136,,knife,knife,1111_cc_dnn_0_knife_40_n03041632_24114.JPEG,,,0
resnext101_32x8d,137,,knife,knife,1111_cc_dnn_0_knife_40_n03041632_24277.JPEG,,,0
resnext101_32x8d,138,,knife,knife,1111_cc_dnn_0_knife_40_n03041632_26340.JPEG,,,0
resnext101_32x8d,139,,knife,knife,1111_cc_dnn_0_knife_40_n03041632_4808.JPEG,,,0
resnext101_32x8d,140,,knife,knife,1111_cc_dnn_0_knife_40_n03041632_83826.JPEG,,,0
resnext101_32x8d,141,,oven,oven,1111_cc_dnn_0_oven_40_n04111531_10011.JPEG,,,0
resnext101_32x8d,142,,oven,oven,1111_cc_dnn_0_oven_40_n04111531_1054.JPEG,,,0
resnext101_32x8d,143,,oven,oven,1111_cc_dnn_0_oven_40_n04111531_11530.JPEG,,,0
resnext101_32x8d,144,,oven,oven,1111_cc_dnn_0_oven_40_n04111531_14611.JPEG,,,0
resnext101_32x8d,145,,oven,oven,1111_cc_dnn_0_oven_40_n04111531_23215.JPEG,,,0
resnext101_32x8d,146,,oven,oven,1111_cc_dnn_0_oven_40_n04111531_2371.JPEG,,,0
resnext101_32x8d,147,,oven,oven,1111_cc_dnn_0_oven_40_n04111531_7034.JPEG,,,0
resnext101_32x8d,148,,oven,oven,1111_cc_dnn_0_oven_40_n04111531_9490.JPEG,,,0
resnext101_32x8d,149,,oven,oven,1111_cc_dnn_0_oven_40_n04111531_9712.JPEG,,,0
resnext101_32x8d,150,,oven,oven,1111_cc_dnn_0_oven_40_n04111531_9844.JPEG,,,0
resnext101_32x8d,151,,truck,truck,1111_cc_dnn_0_truck_40_n03417042_10043.JPEG,,,0
resnext101_32x8d,152,,truck,truck,1111_cc_dnn_0_truck_40_n03417042_12133.JPEG,,,0
resnext101_32x8d,153,,truck,truck,1111_cc_dnn_0_truck_40_n03417042_14000.JPEG,,,0
resnext101_32x8d,154,,truck,truck,1111_cc_dnn_0_truck_40_n03417042_16389.JPEG,,,0
resnext101_32x8d,155,,truck,truck,1111_cc_dnn_0_truck_40_n03417042_19905.JPEG,,,0
resnext101_32x8d,156,,truck,truck,1111_cc_dnn_0_truck_40_n03417042_28078.JPEG,,,0
resnext101_32x8d,157,,truck,truck,1111_cc_dnn_0_truck_40_n03796401_15756.JPEG,,,0
resnext101_32x8d,158,,truck,truck,1111_cc_dnn_0_truck_40_n03796401_4309.JPEG,,,0
resnext101_32x8d,159,,truck,truck,1111_cc_dnn_0_truck_40_n04467665_11776.JPEG,,,0
resnext101_32x8d,160,,truck,truck,1111_cc_dnn_0_truck_40_n04467665_50932.JPEG,,,0
resnext101_32x8d,161,,chair,airplane,1111_cc_dnn_1_airplane1-chair2.png,,,1
resnext101_32x8d,162,,clock,airplane,1111_cc_dnn_1_airplane1-clock1.png,,,1
resnext101_32x8d,163,,elephant,airplane,1111_cc_dnn_1_airplane2-bear1.png,,,1
resnext101_32x8d,164,,bear,airplane,1111_cc_dnn_1_airplane2-dog1.png,,,1
resnext101_32x8d,165,,elephant,airplane,1111_cc_dnn_1_airplane3-elephant1.png,,,1
resnext101_32x8d,166,,elephant,airplane,1111_cc_dnn_1_airplane4-elephant1.png,,,1
resnext101_32x8d,167,,car,airplane,1111_cc_dnn_1_airplane5-bicycle1.png,,,1
resnext101_32x8d,168,,car,airplane,1111_cc_dnn_1_airplane6-chair3.png,,,1
resnext101_32x8d,169,,bottle,airplane,1111_cc_dnn_1_airplane8-bicycle3.png,,,1
resnext101_32x8d,170,,clock,airplane,1111_cc_dnn_1_airplane8-clock2.png,,,1
resnext101_32x8d,171,,car,airplane,1111_cc_dnn_1_airplane8-truck3.png,,,1
resnext101_32x8d,172,,keyboard,airplane,1111_cc_dnn_1_airplane9-keyboard2.png,,,1
resnext101_32x8d,173,,airplane,bear,1111_cc_dnn_1_bear1-airplane3.png,,,1
resnext101_32x8d,174,,keyboard,bear,1111_cc_dnn_1_bear1-bicycle3.png,,,1
resnext101_32x8d,175,,bottle,bear,1111_cc_dnn_1_bear10-bottle1.png,,,1
resnext101_32x8d,176,,clock,bear,1111_cc_dnn_1_bear10-clock1.png,,,1
resnext101_32x8d,177,,bottle,bear,1111_cc_dnn_1_bear10-knife2.png,,,1
resnext101_32x8d,178,,keyboard,bear,1111_cc_dnn_1_bear2-keyboard2.png,,,1
resnext101_32x8d,179,,chair,bear,1111_cc_dnn_1_bear3-chair2.png,,,1
resnext101_32x8d,180,,oven,bear,1111_cc_dnn_1_bear4-oven2.png,,,1
resnext101_32x8d,181,,clock,bear,1111_cc_dnn_1_bear6-clock1.png,,,1
resnext101_32x8d,182,,truck,bear,1111_cc_dnn_1_bear7-oven3.png,,,1
resnext101_32x8d,183,,bottle,bear,1111_cc_dnn_1_bear8-bottle1.png,,,1
resnext101_32x8d,184,,bear,bear,1111_cc_dnn_1_bear8-dog1.png,,,1
resnext101_32x8d,185,,elephant,bear,1111_cc_dnn_1_bear8-elephant2.png,,,1
resnext101_32x8d,186,,keyboard,bear,1111_cc_dnn_1_bear9-keyboard3.png,,,1
resnext101_32x8d,187,,knife,bear,1111_cc_dnn_1_bear9-knife2.png,,,1
resnext101_32x8d,188,,clock,bicycle,1111_cc_dnn_1_bicycle1-clock3.png,,,1
resnext101_32x8d,189,,knife,bicycle,1111_cc_dnn_1_bicycle1-dog3.png,,,1
resnext101_32x8d,190,,chair,bicycle,1111_cc_dnn_1_bicycle1-oven1.png,,,1
resnext101_32x8d,191,,bicycle,bicycle,1111_cc_dnn_1_bicycle10-boat3.png,,,1
resnext101_32x8d,192,,bear,bicycle,1111_cc_dnn_1_bicycle2-dog1.png,,,1
resnext101_32x8d,193,,bottle,bicycle,1111_cc_dnn_1_bicycle3-bird1.png,,,1
resnext101_32x8d,194,,elephant,bicycle,1111_cc_dnn_1_bicycle3-elephant2.png,,,1
resnext101_32x8d,195,,keyboard,bicycle,1111_cc_dnn_1_bicycle3-oven3.png,,,1
resnext101_32x8d,196,,clock,bicycle,1111_cc_dnn_1_bicycle4-oven3.png,,,1
resnext101_32x8d,197,,truck,bicycle,1111_cc_dnn_1_bicycle4-truck3.png,,,1
resnext101_32x8d,198,,car,bicycle,1111_cc_dnn_1_bicycle5-car3.png,,,1
resnext101_32x8d,199,,clock,bicycle,1111_cc_dnn_1_bicycle7-clock3.png,,,1
resnext101_32x8d,200,,car,bicycle,1111_cc_dnn_1_bicycle9-chair1.png,,,1
resnext101_32x8d,201,,elephant,bird,1111_cc_dnn_1_bird1-elephant2.png,,,1
resnext101_32x8d,202,,knife,bird,1111_cc_dnn_1_bird1-oven1.png,,,1
resnext101_32x8d,203,,clock,bird,1111_cc_dnn_1_bird10-clock1.png,,,1
resnext101_32x8d,204,,elephant,bird,1111_cc_dnn_1_bird10-elephant2.png,,,1
resnext101_32x8d,205,,airplane,bird,1111_cc_dnn_1_bird2-airplane3.png,,,1
resnext101_32x8d,206,,car,bird,1111_cc_dnn_1_bird5-truck2.png,,,1
resnext101_32x8d,207,,airplane,bird,1111_cc_dnn_1_bird6-airplane2.png,,,1
resnext101_32x8d,208,,car,bird,1111_cc_dnn_1_bird6-car3.png,,,1
resnext101_32x8d,209,,elephant,bird,1111_cc_dnn_1_bird8-elephant1.png,,,1
resnext101_32x8d,210,,bottle,bird,1111_cc_dnn_1_bird8-keyboard2.png,,,1
resnext101_32x8d,211,,elephant,bird,1111_cc_dnn_1_bird9-bear3.png,,,1
resnext101_32x8d,212,,dog,bird,1111_cc_dnn_1_bird9-dog2.png,,,1
resnext101_32x8d,213,,cat,boat,1111_cc_dnn_1_boat10-cat1.png,,,1
resnext101_32x8d,214,,bottle,boat,1111_cc_dnn_1_boat2-bird1.png,,,1
resnext101_32x8d,215,,bottle,boat,1111_cc_dnn_1_boat2-bottle2.png,,,1
resnext101_32x8d,216,,truck,boat,1111_cc_dnn_1_boat2-oven3.png,,,1
resnext101_32x8d,217,,bottle,boat,1111_cc_dnn_1_boat3-airplane2.png,,,1
resnext101_32x8d,218,,car,boat,1111_cc_dnn_1_boat3-car3.png,,,1
resnext101_32x8d,219,,clock,boat,1111_cc_dnn_1_boat3-clock3.png,,,1
resnext101_32x8d,220,,bottle,boat,1111_cc_dnn_1_boat4-dog2.png,,,1
resnext101_32x8d,221,,car,boat,1111_cc_dnn_1_boat5-car3.png,,,1
resnext101_32x8d,222,,boat,boat,1111_cc_dnn_1_boat6-car1.png,,,1
resnext101_32x8d,223,,bear,boat,1111_cc_dnn_1_boat6-dog1.png,,,1
resnext101_32x8d,224,,bottle,boat,1111_cc_dnn_1_boat7-bottle1.png,,,1
resnext101_32x8d,225,,bottle,boat,1111_cc_dnn_1_boat7-cat3.png,,,1
resnext101_32x8d,226,,bottle,boat,1111_cc_dnn_1_boat7-keyboard3.png,,,1
resnext101_32x8d,227,,bottle,boat,1111_cc_dnn_1_boat9-bird1.png,,,1
resnext101_32x8d,228,,bottle,bottle,1111_cc_dnn_1_bottle1-cat3.png,,,1
resnext101_32x8d,229,,bottle,bottle,1111_cc_dnn_1_bottle3-cat3.png,,,1
resnext101_32x8d,230,,car,bottle,1111_cc_dnn_1_bottle3-chair3.png,,,1
resnext101_32x8d,231,,bottle,bottle,1111_cc_dnn_1_bottle3-knife3.png,,,1
resnext101_32x8d,232,,knife,bottle,1111_cc_dnn_1_bottle5-knife1.png,,,1
resnext101_32x8d,233,,bottle,bottle,1111_cc_dnn_1_bottle5-truck1.png,,,1
resnext101_32x8d,234,,elephant,bottle,1111_cc_dnn_1_bottle7-bear1.png,,,1
resnext101_32x8d,235,,bottle,bottle,1111_cc_dnn_1_bottle8-bicycle1.png,,,1
resnext101_32x8d,236,,bottle,bottle,1111_cc_dnn_1_bottle9-keyboard1.png,,,1
resnext101_32x8d,237,,bottle,bottle,1111_cc_dnn_1_bottle9-truck1.png,,,1
resnext101_32x8d,238,,truck,car,1111_cc_dnn_1_car1-airplane1.png,,,1
resnext101_32x8d,239,,car,car,1111_cc_dnn_1_car1-chair3.png,,,1
resnext101_32x8d,240,,car,car,1111_cc_dnn_1_car10-bicycle2.png,,,1
resnext101_32x8d,241,,bear,car,1111_cc_dnn_1_car10-dog1.png,,,1
resnext101_32x8d,242,,elephant,car,1111_cc_dnn_1_car10-elephant2.png,,,1
resnext101_32x8d,243,,bottle,car,1111_cc_dnn_1_car10-keyboard2.png,,,1
resnext101_32x8d,244,,car,car,1111_cc_dnn_1_car2-bird3.png,,,1
resnext101_32x8d,245,,bottle,car,1111_cc_dnn_1_car2-cat3.png,,,1
resnext101_32x8d,246,,bottle,car,1111_cc_dnn_1_car2-knife3.png,,,1
resnext101_32x8d,247,,elephant,car,1111_cc_dnn_1_car3-elephant3.png,,,1
resnext101_32x8d,248,,bird,car,1111_cc_dnn_1_car4-bear3.png,,,1
resnext101_32x8d,249,,bottle,car,1111_cc_dnn_1_car4-bird1.png,,,1
resnext101_32x8d,250,,boat,car,1111_cc_dnn_1_car4-boat1.png,,,1
resnext101_32x8d,251,,truck,car,1111_cc_dnn_1_car5-knife2.png,,,1
resnext101_32x8d,252,,truck,car,1111_cc_dnn_1_car5-truck3.png,,,1
resnext101_32x8d,253,,car,car,1111_cc_dnn_1_car6-chair3.png,,,1
resnext101_32x8d,254,,bird,car,1111_cc_dnn_1_car7-dog3.png,,,1
resnext101_32x8d,255,,car,car,1111_cc_dnn_1_car8-bicycle2.png,,,1
resnext101_32x8d,256,,dog,car,1111_cc_dnn_1_car8-cat1.png,,,1
resnext101_32x8d,257,,car,car,1111_cc_dnn_1_car8-chair1.png,,,1
resnext101_32x8d,258,,car,car,1111_cc_dnn_1_car9-bicycle2.png,,,1
resnext101_32x8d,259,,clock,cat,1111_cc_dnn_1_cat1-airplane1.png,,,1
resnext101_32x8d,260,,bottle,cat,1111_cc_dnn_1_cat1-car2.png,,,1
resnext101_32x8d,261,,cat,cat,1111_cc_dnn_1_cat1-dog1.png,,,1
resnext101_32x8d,262,,cat,cat,1111_cc_dnn_1_cat10-bird2.png,,,1
resnext101_32x8d,263,,clock,cat,1111_cc_dnn_1_cat10-clock1.png,,,1
resnext101_32x8d,264,,elephant,cat,1111_cc_dnn_1_cat10-elephant3.png,,,1
resnext101_32x8d,265,,bottle,cat,1111_cc_dnn_1_cat2-bottle3.png,,,1
resnext101_32x8d,266,,truck,cat,1111_cc_dnn_1_cat3-oven2.png,,,1
resnext101_32x8d,267,,bottle,cat,1111_cc_dnn_1_cat5-airplane2.png,,,1
resnext101_32x8d,268,,bottle,cat,1111_cc_dnn_1_cat5-bottle1.png,,,1
resnext101_32x8d,269,,clock,cat,1111_cc_dnn_1_cat5-chair3.png,,,1
resnext101_32x8d,270,,cat,cat,1111_cc_dnn_1_cat5-dog3.png,,,1
resnext101_32x8d,271,,elephant,cat,1111_cc_dnn_1_cat5-elephant2.png,,,1
resnext101_32x8d,272,,knife,cat,1111_cc_dnn_1_cat5-knife2.png,,,1
resnext101_32x8d,273,,oven,cat,1111_cc_dnn_1_cat9-bird3.png,,,1
resnext101_32x8d,274,,oven,chair,1111_cc_dnn_1_chair1-cat3.png,,,1
resnext101_32x8d,275,,truck,chair,1111_cc_dnn_1_chair1-truck3.png,,,1
resnext101_32x8d,276,,bottle,chair,1111_cc_dnn_1_chair10-airplane2.png,,,1
resnext101_32x8d,277,,bird,chair,1111_cc_dnn_1_chair10-bird3.png,,,1
resnext101_32x8d,278,,bottle,chair,1111_cc_dnn_1_chair10-bottle3.png,,,1
resnext101_32x8d,279,,bottle,chair,1111_cc_dnn_1_chair4-oven2.png,,,1
resnext101_32x8d,280,,car,chair,1111_cc_dnn_1_chair4-truck2.png,,,1
resnext101_32x8d,281,,bird,chair,1111_cc_dnn_1_chair5-bird1.png,,,1
resnext101_32x8d,282,,oven,chair,1111_cc_dnn_1_chair5-cat3.png,,,1
resnext101_32x8d,283,,chair,chair,1111_cc_dnn_1_chair7-boat3.png,,,1
resnext101_32x8d,284,,keyboard,chair,1111_cc_dnn_1_chair7-truck3.png,,,1
resnext101_32x8d,285,,keyboard,chair,1111_cc_dnn_1_chair8-keyboard3.png,,,1
resnext101_32x8d,286,,knife,chair,1111_cc_dnn_1_chair8-knife2.png,,,1
resnext101_32x8d,287,,clock,chair,1111_cc_dnn_1_chair9-bird3.png,,,1
resnext101_32x8d,288,,boat,chair,1111_cc_dnn_1_chair9-boat2.png,,,1
resnext101_32x8d,289,,bear,clock,1111_cc_dnn_1_clock1-bear1.png,,,1
resnext101_32x8d,290,,boat,clock,1111_cc_dnn_1_clock1-boat3.png,,,1
resnext101_32x8d,291,,car,clock,1111_cc_dnn_1_clock1-truck3.png,,,1
resnext101_32x8d,292,,clock,clock,1111_cc_dnn_1_clock2-bear2.png,,,1
resnext101_32x8d,293,,clock,clock,1111_cc_dnn_1_clock2-knife1.png,,,1
resnext101_32x8d,294,,elephant,clock,1111_cc_dnn_1_clock3-bear3.png,,,1
resnext101_32x8d,295,,clock,clock,1111_cc_dnn_1_clock3-car2.png,,,1
resnext101_32x8d,296,,clock,clock,1111_cc_dnn_1_clock3-cat1.png,,,1
resnext101_32x8d,297,,elephant,clock,1111_cc_dnn_1_clock3-elephant3.png,,,1
resnext101_32x8d,298,,clock,clock,1111_cc_dnn_1_clock4-airplane1.png,,,1
resnext101_32x8d,299,,clock,clock,1111_cc_dnn_1_clock4-boat3.png,,,1
resnext101_32x8d,300,,clock,clock,1111_cc_dnn_1_clock6-bird3.png,,,1
resnext101_32x8d,301,,car,clock,1111_cc_dnn_1_clock6-chair3.png,,,1
resnext101_32x8d,302,,clock,clock,1111_cc_dnn_1_clock6-knife2.png,,,1
resnext101_32x8d,303,,clock,clock,1111_cc_dnn_1_clock7-cat2.png,,,1
resnext101_32x8d,304,,clock,clock,1111_cc_dnn_1_clock8-airplane2.png,,,1
resnext101_32x8d,305,,clock,clock,1111_cc_dnn_1_clock9-airplane1.png,,,1
resnext101_32x8d,306,,cat,clock,1111_cc_dnn_1_clock9-cat1.png,,,1
resnext101_32x8d,307,,car,clock,1111_cc_dnn_1_clock9-chair3.png,,,1
resnext101_32x8d,308,,bear,dog,1111_cc_dnn_1_dog1-bear1.png,,,1
resnext101_32x8d,309,,bear,dog,1111_cc_dnn_1_dog1-bird1.png,,,1
resnext101_32x8d,310,,boat,dog,1111_cc_dnn_1_dog1-boat3.png,,,1
resnext101_32x8d,311,,bottle,dog,1111_cc_dnn_1_dog10-keyboard2.png,,,1
resnext101_32x8d,312,,bottle,dog,1111_cc_dnn_1_dog2-bottle2.png,,,1
resnext101_32x8d,313,,elephant,dog,1111_cc_dnn_1_dog3-bear3.png,,,1
resnext101_32x8d,314,,bird,dog,1111_cc_dnn_1_dog4-bird1.png,,,1
resnext101_32x8d,315,,car,dog,1111_cc_dnn_1_dog4-chair1.png,,,1
resnext101_32x8d,316,,bottle,dog,1111_cc_dnn_1_dog4-oven1.png,,,1
resnext101_32x8d,317,,elephant,dog,1111_cc_dnn_1_dog5-bear3.png,,,1
resnext101_32x8d,318,,clock,dog,1111_cc_dnn_1_dog6-clock1.png,,,1
resnext101_32x8d,319,,bottle,dog,1111_cc_dnn_1_dog7-keyboard3.png,,,1
resnext101_32x8d,320,,clock,dog,1111_cc_dnn_1_dog8-clock2.png,,,1
resnext101_32x8d,321,,bottle,dog,1111_cc_dnn_1_dog9-bottle1.png,,,1
resnext101_32x8d,322,,boat,dog,1111_cc_dnn_1_dog9-car1.png,,,1
resnext101_32x8d,323,,boat,elephant,1111_cc_dnn_1_elephant1-boat2.png,,,1
resnext101_32x8d,324,,bottle,elephant,1111_cc_dnn_1_elephant1-bottle1.png,,,1
resnext101_32x8d,325,,car,elephant,1111_cc_dnn_1_elephant1-car3.png,,,1
resnext101_32x8d,326,,chair,elephant,1111_cc_dnn_1_elephant10-knife3.png,,,1
resnext101_32x8d,327,,bottle,elephant,1111_cc_dnn_1_elephant2-bird1.png,,,1
resnext101_32x8d,328,,boat,elephant,1111_cc_dnn_1_elephant2-boat1.png,,,1
resnext101_32x8d,329,,bottle,elephant,1111_cc_dnn_1_elephant2-bottle3.png,,,1
resnext101_32x8d,330,,bottle,elephant,1111_cc_dnn_1_elephant2-keyboard3.png,,,1
resnext101_32x8d,331,,cat,elephant,1111_cc_dnn_1_elephant3-cat2.png,,,1
resnext101_32x8d,332,,bottle,elephant,1111_cc_dnn_1_elephant3-keyboard2.png,,,1
resnext101_32x8d,333,,clock,elephant,1111_cc_dnn_1_elephant4-clock3.png,,,1
resnext101_32x8d,334,,bottle,elephant,1111_cc_dnn_1_elephant4-oven1.png,,,1
resnext101_32x8d,335,,bottle,elephant,1111_cc_dnn_1_elephant5-bottle2.png,,,1
resnext101_32x8d,336,,car,elephant,1111_cc_dnn_1_elephant6-car3.png,,,1
resnext101_32x8d,337,,keyboard,elephant,1111_cc_dnn_1_elephant7-keyboard3.png,,,1
resnext101_32x8d,338,,knife,elephant,1111_cc_dnn_1_elephant7-knife2.png,,,1
resnext101_32x8d,339,,boat,elephant,1111_cc_dnn_1_elephant8-boat2.png,,,1
resnext101_32x8d,340,,dog,elephant,1111_cc_dnn_1_elephant8-cat1.png,,,1
resnext101_32x8d,341,,clock,elephant,1111_cc_dnn_1_elephant8-clock2.png,,,1
resnext101_32x8d,342,,bear,elephant,1111_cc_dnn_1_elephant8-dog1.png,,,1
resnext101_32x8d,343,,bottle,elephant,1111_cc_dnn_1_elephant9-airplane2.png,,,1
resnext101_32x8d,344,,bicycle,elephant,1111_cc_dnn_1_elephant9-bicycle2.png,,,1
resnext101_32x8d,345,,boat,elephant,1111_cc_dnn_1_elephant9-boat3.png,,,1
resnext101_32x8d,346,,bottle,keyboard,1111_cc_dnn_1_keyboard1-airplane2.png,,,1
resnext101_32x8d,347,,clock,keyboard,1111_cc_dnn_1_keyboard1-clock1.png,,,1
resnext101_32x8d,348,,oven,keyboard,1111_cc_dnn_1_keyboard10-oven3.png,,,1
resnext101_32x8d,349,,bottle,keyboard,1111_cc_dnn_1_keyboard3-bicycle2.png,,,1
resnext101_32x8d,350,,cat,keyboard,1111_cc_dnn_1_keyboard4-cat2.png,,,1
resnext101_32x8d,351,,bottle,keyboard,1111_cc_dnn_1_keyboard4-truck3.png,,,1
resnext101_32x8d,352,,bottle,keyboard,1111_cc_dnn_1_keyboard6-bicycle1.png,,,1
resnext101_32x8d,353,,bottle,keyboard,1111_cc_dnn_1_keyboard6-bottle2.png,,,1
resnext101_32x8d,354,,knife,keyboard,1111_cc_dnn_1_keyboard7-knife1.png,,,1
resnext101_32x8d,355,,keyboard,keyboard,1111_cc_dnn_1_keyboard8-oven1.png,,,1
resnext101_32x8d,356,,keyboard,keyboard,1111_cc_dnn_1_keyboard9-airplane3.png,,,1
resnext101_32x8d,357,,bear,keyboard,1111_cc_dnn_1_keyboard9-bear2.png,,,1
resnext101_32x8d,358,,boat,keyboard,1111_cc_dnn_1_keyboard9-boat2.png,,,1
resnext101_32x8d,359,,bottle,keyboard,1111_cc_dnn_1_keyboard9-truck3.png,,,1
resnext101_32x8d,360,,bear,knife,1111_cc_dnn_1_knife1-dog1.png,,,1
resnext101_32x8d,361,,elephant,knife,1111_cc_dnn_1_knife1-elephant1.png,,,1
resnext101_32x8d,362,,car,knife,1111_cc_dnn_1_knife10-chair1.png,,,1
resnext101_32x8d,363,,bottle,knife,1111_cc_dnn_1_knife10-keyboard3.png,,,1
resnext101_32x8d,364,,elephant,knife,1111_cc_dnn_1_knife2-bear2.png,,,1
resnext101_32x8d,365,,car,knife,1111_cc_dnn_1_knife2-car3.png,,,1
resnext101_32x8d,366,,bear,knife,1111_cc_dnn_1_knife2-dog1.png,,,1
resnext101_32x8d,367,,elephant,knife,1111_cc_dnn_1_knife2-elephant2.png,,,1
resnext101_32x8d,368,,oven,knife,1111_cc_dnn_1_knife5-oven2.png,,,1
resnext101_32x8d,369,,boat,knife,1111_cc_dnn_1_knife6-boat3.png,,,1
resnext101_32x8d,370,,oven,knife,1111_cc_dnn_1_knife6-oven3.png,,,1
resnext101_32x8d,371,,keyboard,knife,1111_cc_dnn_1_knife7-car2.png,,,1
resnext101_32x8d,372,,chair,knife,1111_cc_dnn_1_knife7-chair2.png,,,1
resnext101_32x8d,373,,car,knife,1111_cc_dnn_1_knife8-bicycle1.png,,,1
resnext101_32x8d,374,,bicycle,knife,1111_cc_dnn_1_knife9-bicycle1.png,,,1
resnext101_32x8d,375,,bottle,knife,1111_cc_dnn_1_knife9-bottle2.png,,,1
resnext101_32x8d,376,,truck,oven,1111_cc_dnn_1_oven1-boat3.png,,,1
resnext101_32x8d,377,,truck,oven,1111_cc_dnn_1_oven2-truck3.png,,,1
resnext101_32x8d,378,,bear,oven,1111_cc_dnn_1_oven3-bear2.png,,,1
resnext101_32x8d,379,,truck,oven,1111_cc_dnn_1_oven3-truck1.png,,,1
resnext101_32x8d,380,,bottle,oven,1111_cc_dnn_1_oven5-keyboard2.png,,,1
resnext101_32x8d,381,,truck,oven,1111_cc_dnn_1_oven6-knife3.png,,,1
resnext101_32x8d,382,,car,oven,1111_cc_dnn_1_oven6-truck1.png,,,1
resnext101_32x8d,383,,bottle,oven,1111_cc_dnn_1_oven7-clock2.png,,,1
resnext101_32x8d,384,,bottle,oven,1111_cc_dnn_1_oven7-dog2.png,,,1
resnext101_32x8d,385,,bear,oven,1111_cc_dnn_1_oven9-bear2.png,,,1
resnext101_32x8d,386,,bear,truck,1111_cc_dnn_1_truck1-bear1.png,,,1
resnext101_32x8d,387,,cat,truck,1111_cc_dnn_1_truck1-cat1.png,,,1
resnext101_32x8d,388,,knife,truck,1111_cc_dnn_1_truck1-knife1.png,,,1
resnext101_32x8d,389,,bicycle,truck,1111_cc_dnn_1_truck10-bicycle1.png,,,1
resnext101_32x8d,390,,truck,truck,1111_cc_dnn_1_truck2-airplane3.png,,,1
resnext101_32x8d,391,,bottle,truck,1111_cc_dnn_1_truck2-bicycle2.png,,,1
resnext101_32x8d,392,,truck,truck,1111_cc_dnn_1_truck2-boat3.png,,,1
resnext101_32x8d,393,,bottle,truck,1111_cc_dnn_1_truck2-bottle3.png,,,1
resnext101_32x8d,394,,car,truck,1111_cc_dnn_1_truck2-car3.png,,,1
resnext101_32x8d,395,,car,truck,1111_cc_dnn_1_truck2-chair1.png,,,1
resnext101_32x8d,396,,car,truck,1111_cc_dnn_1_truck3-bicycle1.png,,,1
resnext101_32x8d,397,,bottle,truck,1111_cc_dnn_1_truck3-bird2.png,,,1
resnext101_32x8d,398,,car,truck,1111_cc_dnn_1_truck3-car3.png,,,1
resnext101_32x8d,399,,truck,truck,1111_cc_dnn_1_truck5-car1.png,,,1
resnext101_32x8d,400,,elephant,truck,1111_cc_dnn_1_truck8-elephant1.png,,,1
