subj,trial,rt,object_response,category,imagename,age,block,difficulty
31,1,1.2173,keyboard,keyboard,1111_cc_hum_0_keyboard_40_n03085013_19436.JPEG,10.0,1,0
31,2,1.7,clock,clock,1111_cc_hum_0_clock_40_n04548280_2518.JPEG,10.0,1,0
31,3,0.5673,boat,boat,1111_cc_hum_0_boat_40_n02951358_2853.JPEG,10.0,1,0
31,4,0.4674,car,car,1111_cc_hum_1_car10-bicycle2.png,10.0,1,1
31,5,0.4507,bear,bear,1111_cc_hum_1_bear8-elephant2.png,10.0,1,1
31,6,2.3334,chair,cat,1111_cc_hum_1_cat5-airplane2.png,10.0,1,1
31,7,0.7004,truck,truck,1111_cc_hum_1_truck5-car1.png,10.0,1,1
31,8,0.4504,bear,bear,1111_cc_hum_1_bear8-bottle1.png,10.0,1,1
31,9,1.9503,bear,cat,1111_cc_hum_1_cat5-elephant2.png,10.0,1,1
31,10,0.7004,car,car,1111_cc_hum_0_car_40_n03100240_6805.JPEG,10.0,1,0
31,11,1.0336,keyboard,keyboard,1111_cc_hum_1_keyboard6-bicycle1.png,10.0,1,1
31,12,6.082999999999998,chair,knife,1111_cc_hum_1_knife10-chair1.png,10.0,1,1
31,13,0.517,dog,dog,1111_cc_hum_0_dog_40_n02101388_2075.JPEG,10.0,1,0
31,14,0.5836,airplane,airplane,1111_cc_hum_1_airplane1-clock1.png,10.0,1,1
31,15,5.1161,cat,boat,1111_cc_hum_1_boat7-cat3.png,10.0,1,1
31,16,1.1003,car,knife,1111_cc_hum_1_knife7-car2.png,10.0,1,1
31,17,1.0004,bear,elephant,1111_cc_hum_1_elephant8-dog1.png,10.0,1,1
31,18,0.6336,cat,cat,1111_cc_hum_0_cat_40_n02123045_8774.JPEG,10.0,1,0
31,19,2.7833,boat,boat,1111_cc_hum_0_boat_40_n04612504_30742.JPEG,10.0,1,0
31,20,1.3169,oven,oven,1111_cc_hum_0_oven_40_n04111531_23215.JPEG,10.0,1,0
31,21,0.8502,car,car,1111_cc_hum_0_car_40_n04285008_3280.JPEG,10.0,2,0
31,22,2.0171,knife,knife,1111_cc_hum_0_knife_40_n03041632_24114.JPEG,10.0,2,0
31,23,0.8838,truck,truck,1111_cc_hum_0_truck_40_n03417042_12133.JPEG,10.0,2,0
31,24,1.517,bear,airplane,1111_cc_hum_1_airplane2-dog1.png,10.0,2,1
31,25,0.7172,car,car,1111_cc_hum_1_car5-truck3.png,10.0,2,1
31,26,0.6171,car,car,1111_cc_hum_1_car8-chair1.png,10.0,2,1
31,27,1.55,bear,bear,1111_cc_hum_0_bear_40_n02134084_5027.JPEG,10.0,2,0
31,28,0.8833,bicycle,bicycle,1111_cc_hum_1_bicycle4-oven3.png,10.0,2,1
31,29,1.6671,bear,bicycle,1111_cc_hum_1_bicycle3-bird1.png,10.0,2,1
31,30,0.8004,elephant,elephant,1111_cc_hum_0_elephant_40_n02504013_1916.JPEG,10.0,2,0
31,31,1.0004,bird,bird,1111_cc_hum_1_bird9-dog2.png,10.0,2,1
31,32,0.4502,dog,dog,1111_cc_hum_1_dog1-bear1.png,10.0,2,1
31,33,3.6168,bear,airplane,1111_cc_hum_1_airplane2-bear1.png,10.0,2,1
31,34,0.6338,knife,knife,1111_cc_hum_1_knife8-bicycle1.png,10.0,2,1
31,35,1.4169,elephant,airplane,1111_cc_hum_1_airplane4-elephant1.png,10.0,2,1
31,36,0.8338,clock,clock,1111_cc_hum_1_clock7-cat2.png,10.0,2,1
31,37,1.5169,dog,dog,1111_cc_hum_1_dog6-clock1.png,10.0,2,1
31,38,0.9671,chair,chair,1111_cc_hum_0_chair_40_n03376595_4469.JPEG,10.0,2,0
31,39,0.5172,chair,chair,1111_cc_hum_0_chair_40_n03376595_2566.JPEG,10.0,2,0
31,40,3.0334,oven,bottle,1111_cc_hum_0_bottle_40_n04560804_12278.JPEG,10.0,2,0
31,41,0.4006,cat,cat,1111_cc_hum_0_cat_40_n02124075_9716.JPEG,10.0,3,0
31,42,0.6672,knife,knife,1111_cc_hum_0_knife_40_n03041632_24277.JPEG,10.0,3,0
31,43,0.867,car,truck,1111_cc_hum_0_truck_40_n03796401_4309.JPEG,10.0,3,0
31,44,4.1166,bear,car,1111_cc_hum_1_car10-keyboard2.png,10.0,3,1
31,45,1.0668,bird,bird,1111_cc_hum_1_bird1-oven1.png,10.0,3,1
31,46,0.7837,bottle,bottle,1111_cc_hum_1_bottle9-truck1.png,10.0,3,1
31,47,0.5839,clock,clock,1111_cc_hum_1_clock9-cat1.png,10.0,3,1
31,48,0.5841,bicycle,bicycle,1111_cc_hum_1_bicycle1-clock3.png,10.0,3,1
31,49,2.7839,bear,elephant,1111_cc_hum_1_elephant2-bird1.png,10.0,3,1
31,50,0.7005,bear,bear,1111_cc_hum_0_bear_40_n02134084_2004.JPEG,10.0,3,0
31,51,1.1502,bicycle,bicycle,1111_cc_hum_0_bicycle_40_n03792782_52601.JPEG,10.0,3,0
31,52,0.5336,cat,cat,1111_cc_hum_1_cat1-airplane1.png,10.0,3,1
31,53,0.6336,chair,chair,1111_cc_hum_1_chair7-truck3.png,10.0,3,1
31,54,2.0505,truck,truck,1111_cc_hum_1_truck2-boat3.png,10.0,3,1
31,55,1.2669,elephant,elephant,1111_cc_hum_1_elephant5-bottle2.png,10.0,3,1
31,56,0.6168,chair,chair,1111_cc_hum_1_chair9-boat2.png,10.0,3,1
31,57,0.6836,car,car,1111_cc_hum_1_car4-boat1.png,10.0,3,1
31,58,0.4338,keyboard,keyboard,1111_cc_hum_0_keyboard_40_n04505470_933.JPEG,10.0,3,0
31,59,0.4341,dog,dog,1111_cc_hum_0_dog_40_n02088632_2814.JPEG,10.0,3,0
31,60,2.5503,oven,oven,1111_cc_hum_0_oven_40_n04111531_1054.JPEG,10.0,3,0
31,61,1.6166,bicycle,bicycle,1111_cc_hum_0_bicycle_40_n03792782_14216.JPEG,10.0,4,0
31,62,0.9006,bird,bird,1111_cc_hum_0_bird_40_n01530575_4260.JPEG,10.0,4,0
31,63,0.8675,bird,bird,1111_cc_hum_0_bird_40_n02037110_11551.JPEG,10.0,4,0
31,64,1.0334,truck,truck,1111_cc_hum_1_truck1-knife1.png,10.0,4,1
31,65,0.4502,clock,clock,1111_cc_hum_1_clock4-airplane1.png,10.0,4,1
31,66,0.4336,dog,dog,1111_cc_hum_1_dog5-bear3.png,10.0,4,1
31,67,3.1169,dog,bear,1111_cc_hum_1_bear9-keyboard3.png,10.0,4,1
31,68,2.7667,clock,clock,1111_cc_hum_0_clock_40_n03196217_585.JPEG,10.0,4,0
31,69,0.7504,truck,truck,1111_cc_hum_1_truck2-bottle3.png,10.0,4,1
31,70,0.3504,clock,clock,1111_cc_hum_1_clock2-knife1.png,10.0,4,1
31,71,3.4672,oven,chair,1111_cc_hum_1_chair4-oven2.png,10.0,4,1
31,72,4.0499,elephant,boat,1111_cc_hum_1_boat7-keyboard3.png,10.0,4,1
31,73,2.35,oven,bottle,1111_cc_hum_0_bottle_40_n04591713_2718.JPEG,10.0,4,0
31,74,2.6501,bird,boat,1111_cc_hum_1_boat6-car1.png,10.0,4,1
31,75,0.5505,clock,clock,1111_cc_hum_1_clock6-chair3.png,10.0,4,1
31,76,5.1168,boat,elephant,1111_cc_hum_1_elephant10-knife3.png,10.0,4,1
31,77,0.6336,chair,chair,1111_cc_hum_1_chair10-bird3.png,10.0,4,1
31,78,0.4337,airplane,airplane,1111_cc_hum_0_airplane_40_n02690373_6999.JPEG,10.0,4,0
31,79,0.4336,airplane,airplane,1111_cc_hum_0_airplane_40_n02690373_6853.JPEG,10.0,4,0
31,80,0.6001,elephant,elephant,1111_cc_hum_0_elephant_40_n02504458_4954.JPEG,10.0,4,0
31,81,0.2671,elephant,elephant,1111_cc_hum_0_elephant_40_n02504458_1848.JPEG,10.0,5,0
31,82,0.7004,knife,knife,1111_cc_hum_0_knife_40_n03041632_14224.JPEG,10.0,5,0
31,83,2.3505,bicycle,bicycle,1111_cc_hum_0_bicycle_40_n02835271_276.JPEG,10.0,5,0
31,84,1.9668,car,cat,1111_cc_hum_1_cat5-knife2.png,10.0,5,1
31,85,2.7338,bear,elephant,1111_cc_hum_1_elephant8-clock2.png,10.0,5,1
31,86,3.0165,boat,cat,1111_cc_hum_1_cat10-bird2.png,10.0,5,1
31,87,1.2168,boat,boat,1111_cc_hum_1_boat3-car3.png,10.0,5,1
31,88,4.85,truck,keyboard,1111_cc_hum_1_keyboard3-bicycle2.png,10.0,5,1
31,89,2.1004,oven,oven,1111_cc_hum_1_oven1-boat3.png,10.0,5,1
31,90,3.4499,elephant,cat,1111_cc_hum_0_cat_40_n02123045_964.JPEG,10.0,5,0
31,91,1.5668,knife,knife,1111_cc_hum_1_knife1-dog1.png,10.0,5,1
31,92,2.1667,bear,bear,1111_cc_hum_1_bear10-knife2.png,10.0,5,1
31,93,0.7005,elephant,elephant,1111_cc_hum_1_elephant4-clock3.png,10.0,5,1
31,94,0.5838,bear,bear,1111_cc_hum_0_bear_40_n02133161_2137.JPEG,10.0,5,0
31,95,1.5668,truck,truck,1111_cc_hum_1_truck2-chair1.png,10.0,5,1
31,96,1.5006,bear,bear,1111_cc_hum_1_bear10-clock1.png,10.0,5,1
31,97,0.9005,airplane,airplane,1111_cc_hum_1_airplane6-chair3.png,10.0,5,1
31,98,3.0167,cat,dog,1111_cc_hum_0_dog_40_n02102318_11816.JPEG,10.0,5,0
31,99,0.8999,boat,boat,1111_cc_hum_0_boat_40_n02951358_4826.JPEG,10.0,5,0
31,100,1.6002,truck,truck,1111_cc_hum_0_truck_40_n03417042_14000.JPEG,10.0,5,0
31,101,1.8002,keyboard,bottle,1111_cc_hum_0_bottle_40_n04591713_5754.JPEG,10.0,6,0
31,102,0.7333,elephant,elephant,1111_cc_hum_0_elephant_40_n02504458_4336.JPEG,10.0,6,0
31,103,6.4665,chair,chair,1111_cc_hum_0_chair_40_n04429376_9212.JPEG,10.0,6,0
31,104,0.7839,bear,bear,1111_cc_hum_0_bear_40_n02134418_4041.JPEG,10.0,6,0
31,105,0.3838,clock,clock,1111_cc_hum_1_clock3-cat1.png,10.0,6,1
31,106,0.3007,bear,bear,1111_cc_hum_1_bear8-dog1.png,10.0,6,1
31,107,3.1001,cat,cat,1111_cc_hum_1_cat5-bottle1.png,10.0,6,1
31,108,0.4,bird,bird,1111_cc_hum_1_bird5-truck2.png,10.0,6,1
31,109,0.3834,dog,dog,1111_cc_hum_1_dog4-oven1.png,10.0,6,1
31,110,0.5672,chair,chair,1111_cc_hum_1_chair1-truck3.png,10.0,6,1
31,111,3.0832,bottle,bottle,1111_cc_hum_1_bottle3-cat3.png,10.0,6,1
31,112,2.517,bird,bird,1111_cc_hum_0_bird_40_n01843383_8077.JPEG,10.0,6,0
31,113,1.0337,knife,knife,1111_cc_hum_1_knife1-elephant1.png,10.0,6,1
31,114,1.0508,car,car,1111_cc_hum_1_car4-bird1.png,10.0,6,1
31,115,0.6336,elephant,elephant,1111_cc_hum_1_elephant3-keyboard2.png,10.0,6,1
31,116,0.7505,bicycle,bicycle,1111_cc_hum_1_bicycle3-oven3.png,10.0,6,1
31,117,0.8837,chair,chair,1111_cc_hum_1_chair10-airplane2.png,10.0,6,1
31,118,0.8169,airplane,airplane,1111_cc_hum_0_airplane_40_n02690373_8789.JPEG,10.0,6,0
31,119,0.5004,car,car,1111_cc_hum_0_car_40_n02814533_23512.JPEG,10.0,6,0
31,120,0.117,knife,knife,1111_cc_hum_0_knife_40_n03041632_11797.JPEG,10.0,6,0
31,121,1.0005,bicycle,bicycle,1111_cc_hum_0_bicycle_40_n03792782_33855.JPEG,10.0,7,0
31,122,0.4168,keyboard,keyboard,1111_cc_hum_0_keyboard_40_n03085013_17762.JPEG,10.0,7,0
31,123,1.2501,cat,cat,1111_cc_hum_0_cat_40_n02123159_2684.JPEG,10.0,7,0
31,124,1.0,boat,boat,1111_cc_hum_0_boat_40_n02951358_5718.JPEG,10.0,7,0
31,125,0.5669,clock,clock,1111_cc_hum_1_clock9-airplane1.png,10.0,7,1
31,126,0.6003,clock,clock,1111_cc_hum_1_clock1-bear1.png,10.0,7,1
31,127,0.3676,bicycle,bicycle,1111_cc_hum_1_bicycle10-boat3.png,10.0,7,1
31,128,0.5004,keyboard,keyboard,1111_cc_hum_1_keyboard9-airplane3.png,10.0,7,1
31,129,0.517,knife,knife,1111_cc_hum_1_knife6-oven3.png,10.0,7,1
31,130,10.4491,bird,dog,1111_cc_hum_1_dog7-keyboard3.png,10.0,7,1
31,131,1.2173,knife,knife,1111_cc_hum_1_knife2-dog1.png,10.0,7,1
31,132,0.8837,car,car,1111_cc_hum_1_car9-bicycle2.png,10.0,7,1
31,133,0.4504,car,car,1111_cc_hum_1_car10-elephant2.png,10.0,7,1
31,134,2.4003,truck,dog,1111_cc_hum_1_dog1-boat3.png,10.0,7,1
31,135,0.3675,clock,clock,1111_cc_hum_1_clock3-car2.png,10.0,7,1
31,136,0.5505,bottle,bottle,1111_cc_hum_1_bottle3-chair3.png,10.0,7,1
31,137,1.4003,bird,bird,1111_cc_hum_0_bird_40_n01537544_2772.JPEG,10.0,7,0
31,138,2.8502,clock,bottle,1111_cc_hum_0_bottle_40_n03937543_2357.JPEG,10.0,7,0
31,139,2.3002,oven,oven,1111_cc_hum_0_oven_40_n04111531_10011.JPEG,10.0,7,0
31,140,0.6006,dog,dog,1111_cc_hum_0_dog_40_n02099712_5781.JPEG,10.0,7,0
31,141,0.3006,clock,clock,1111_cc_hum_0_clock_40_n04548280_1438.JPEG,10.0,8,0
31,142,1.0671,truck,truck,1111_cc_hum_0_truck_40_n03417042_28078.JPEG,10.0,8,0
31,143,0.6171,chair,chair,1111_cc_hum_0_chair_40_n04099969_2398.JPEG,10.0,8,0
31,144,0.2336,car,car,1111_cc_hum_1_car8-bicycle2.png,10.0,8,1
31,145,2.7332,car,dog,1111_cc_hum_1_dog2-bottle2.png,10.0,8,1
31,146,1.0335,elephant,elephant,1111_cc_hum_1_elephant6-car3.png,10.0,8,1
31,147,0.4667,bird,bird,1111_cc_hum_1_bird8-elephant1.png,10.0,8,1
31,148,0.3338,car,car,1111_cc_hum_1_car2-cat3.png,10.0,8,1
31,149,1.7168,keyboard,keyboard,1111_cc_hum_1_keyboard4-truck3.png,10.0,8,1
31,150,1.8668,clock,clock,1111_cc_hum_0_clock_40_n03196217_5252.JPEG,10.0,8,0
31,151,0.6336,dog,dog,1111_cc_hum_1_dog1-bird1.png,10.0,8,1
31,152,0.4002,car,car,1111_cc_hum_0_car_40_n02814533_82925.JPEG,10.0,8,0
31,153,2.2007,bear,chair,1111_cc_hum_1_chair8-keyboard3.png,10.0,8,1
31,154,1.2673,clock,oven,1111_cc_hum_1_oven3-bear2.png,10.0,8,1
31,155,1.3168,knife,bottle,1111_cc_hum_1_bottle7-bear1.png,10.0,8,1
31,156,1.2836,chair,boat,1111_cc_hum_1_boat7-bottle1.png,10.0,8,1
31,157,0.5839,car,car,1111_cc_hum_1_car2-knife3.png,10.0,8,1
31,158,1.2669,oven,oven,1111_cc_hum_0_oven_40_n04111531_7034.JPEG,10.0,8,0
31,159,1.817,airplane,airplane,1111_cc_hum_0_airplane_40_n02690373_1071.JPEG,10.0,8,0
31,160,0.7337,keyboard,keyboard,1111_cc_hum_0_keyboard_40_n04505470_2115.JPEG,10.0,8,0
31,161,0.3335,dog,dog,1111_cc_hum_0_dog_40_n02110806_16707.JPEG,10.0,9,0
31,162,1.5336,knife,knife,1111_cc_hum_0_knife_40_n03041632_21723.JPEG,10.0,9,0
31,163,0.4505,chair,chair,1111_cc_hum_0_chair_40_n04429376_18127.JPEG,10.0,9,0
31,164,0.7169,knife,chair,1111_cc_hum_1_chair5-cat3.png,10.0,9,1
31,165,0.6169,bird,bird,1111_cc_hum_1_bird6-car3.png,10.0,9,1
31,166,0.4676,airplane,airplane,1111_cc_hum_1_airplane1-chair2.png,10.0,9,1
31,167,0.7174,elephant,elephant,1111_cc_hum_1_elephant4-oven1.png,10.0,9,1
31,168,0.4837,clock,clock,1111_cc_hum_1_clock8-airplane2.png,10.0,9,1
31,169,0.6174,keyboard,keyboard,1111_cc_hum_1_keyboard9-truck3.png,10.0,9,1
31,170,1.0169,knife,knife,1111_cc_hum_0_knife_40_n03041632_26340.JPEG,10.0,9,0
31,171,0.667,bear,bear,1111_cc_hum_1_bear9-knife2.png,10.0,9,1
31,172,1.85,bird,bird,1111_cc_hum_1_bird10-elephant2.png,10.0,9,1
31,173,0.4337,elephant,elephant,1111_cc_hum_1_elephant7-knife2.png,10.0,9,1
31,174,1.3505,elephant,elephant,1111_cc_hum_1_elephant7-keyboard3.png,10.0,9,1
31,175,1.4,boat,boat,1111_cc_hum_0_boat_40_n04273569_13091.JPEG,10.0,9,0
31,176,0.9837,keyboard,keyboard,1111_cc_hum_1_keyboard4-cat2.png,10.0,9,1
31,177,0.8503,bicycle,bicycle,1111_cc_hum_1_bicycle3-elephant2.png,10.0,9,1
31,178,2.3504,bottle,bottle,1111_cc_hum_0_bottle_40_n04579145_1302.JPEG,10.0,9,0
31,179,1.3001,clock,clock,1111_cc_hum_0_clock_40_n03196217_5478.JPEG,10.0,9,0
31,180,0.8004,keyboard,keyboard,1111_cc_hum_0_keyboard_40_n03085013_2122.JPEG,10.0,9,0
31,181,1.7835,oven,oven,1111_cc_hum_0_oven_40_n04111531_9712.JPEG,10.0,10,0
31,182,2.8836,bear,bear,1111_cc_hum_0_bear_40_n02134418_4895.JPEG,10.0,10,0
31,183,0.7005,clock,clock,1111_cc_hum_0_clock_40_n03196217_3943.JPEG,10.0,10,0
31,184,0.8004,bicycle,bicycle,1111_cc_hum_1_bicycle5-car3.png,10.0,10,1
31,185,0.9499,car,car,1111_cc_hum_0_car_40_n02814533_32461.JPEG,10.0,10,0
31,186,0.6337,airplane,airplane,1111_cc_hum_1_airplane8-bicycle3.png,10.0,10,1
31,187,0.384,car,car,1111_cc_hum_1_car1-airplane1.png,10.0,10,1
31,188,0.2837,airplane,airplane,1111_cc_hum_0_airplane_40_n02690373_19152.JPEG,10.0,10,0
31,189,3.0335,knife,boat,1111_cc_hum_1_boat6-dog1.png,10.0,10,1
31,190,0.384,elephant,elephant,1111_cc_hum_1_elephant1-boat2.png,10.0,10,1
31,191,1.9503,bear,boat,1111_cc_hum_1_boat9-bird1.png,10.0,10,1
31,192,0.4339,cat,cat,1111_cc_hum_1_cat5-dog3.png,10.0,10,1
31,193,0.7169,dog,dog,1111_cc_hum_1_dog9-bottle1.png,10.0,10,1
31,194,1.8339,bear,boat,1111_cc_hum_1_boat2-bird1.png,10.0,10,1
31,195,0.4836,clock,clock,1111_cc_hum_1_clock3-bear3.png,10.0,10,1
31,196,1.3168,keyboard,boat,1111_cc_hum_1_boat3-airplane2.png,10.0,10,1
31,197,0.584,keyboard,keyboard,1111_cc_hum_1_keyboard7-knife1.png,10.0,10,1
31,198,0.45,elephant,elephant,1111_cc_hum_0_elephant_40_n02504458_4.JPEG,10.0,10,0
31,199,1.0005,chair,chair,1111_cc_hum_0_chair_40_n04429376_19101.JPEG,10.0,10,0
31,200,0.9504,cat,cat,1111_cc_hum_0_cat_40_n02124075_8351.JPEG,10.0,10,0
31,201,1.2337,bicycle,bicycle,1111_cc_hum_0_bicycle_40_n03792782_692.JPEG,10.0,11,0
31,202,0.9169,boat,boat,1111_cc_hum_0_boat_40_n04612504_8942.JPEG,10.0,11,0
31,203,0.9506,elephant,elephant,1111_cc_hum_0_elephant_40_n02504013_6660.JPEG,10.0,11,0
31,204,0.9006,truck,truck,1111_cc_hum_1_truck10-bicycle1.png,10.0,11,1
31,205,2.8504,elephant,chair,1111_cc_hum_1_chair5-bird1.png,10.0,11,1
31,206,4.5835,bear,bird,1111_cc_hum_1_bird8-keyboard2.png,10.0,11,1
31,207,0.9009,airplane,airplane,1111_cc_hum_1_airplane5-bicycle1.png,10.0,11,1
31,208,2.2337,bottle,bottle,1111_cc_hum_1_bottle9-keyboard1.png,10.0,11,1
31,209,1.0836,bicycle,bicycle,1111_cc_hum_0_bicycle_40_n03792782_3467.JPEG,10.0,11,0
31,210,1.6837,knife,knife,1111_cc_hum_1_knife6-boat3.png,10.0,11,1
31,211,0.4337,cat,cat,1111_cc_hum_1_cat5-chair3.png,10.0,11,1
31,212,0.5338,bicycle,bicycle,1111_cc_hum_1_bicycle9-chair1.png,10.0,11,1
31,213,1.2332,truck,boat,1111_cc_hum_1_boat3-clock3.png,10.0,11,1
31,214,0.617,clock,clock,1111_cc_hum_1_clock1-boat3.png,10.0,11,1
31,215,1.5006,oven,oven,1111_cc_hum_1_oven2-truck3.png,10.0,11,1
31,216,1.4667,elephant,elephant,1111_cc_hum_1_elephant1-bottle1.png,10.0,11,1
31,217,0.6336,truck,truck,1111_cc_hum_0_truck_40_n03417042_16389.JPEG,10.0,11,0
31,218,1.8672,oven,oven,1111_cc_hum_0_oven_40_n04111531_9490.JPEG,10.0,11,0
31,219,0.3171,cat,cat,1111_cc_hum_0_cat_40_n02124075_14094.JPEG,10.0,11,0
31,220,1.2669,truck,truck,1111_cc_hum_0_truck_40_n03417042_19905.JPEG,10.0,11,0
31,221,0.3667,bear,bear,1111_cc_hum_0_bear_40_n02132136_6787.JPEG,10.0,12,0
31,222,0.5004,airplane,airplane,1111_cc_hum_0_airplane_40_n02690373_4728.JPEG,10.0,12,0
31,223,0.3670000000000001,bird,bird,1111_cc_hum_0_bird_40_n01532829_22520.JPEG,10.0,12,0
31,224,0.2175,bicycle,bicycle,1111_cc_hum_1_bicycle7-clock3.png,10.0,12,1
31,225,0.4839,bicycle,bicycle,1111_cc_hum_1_bicycle4-truck3.png,10.0,12,1
31,226,5.4666,knife,cat,1111_cc_hum_1_cat10-elephant3.png,10.0,12,1
31,227,0.5004,knife,knife,1111_cc_hum_1_knife2-car3.png,10.0,12,1
31,228,0.3673,bicycle,bicycle,1111_cc_hum_1_bicycle1-dog3.png,10.0,12,1
31,229,0.5008,knife,knife,1111_cc_hum_1_knife2-bear2.png,10.0,12,1
31,230,0.5838,bird,bird,1111_cc_hum_1_bird10-clock1.png,10.0,12,1
31,231,1.6183,bear,bear,1111_cc_hum_1_bear4-oven2.png,10.0,12,1
31,232,0.3004,dog,dog,1111_cc_hum_0_dog_40_n02108000_324.JPEG,10.0,12,0
31,233,1.1003,keyboard,keyboard,1111_cc_hum_1_keyboard10-oven3.png,10.0,12,1
31,234,0.5674,elephant,elephant,1111_cc_hum_1_elephant3-cat2.png,10.0,12,1
31,235,0.3837,elephant,elephant,1111_cc_hum_1_elephant2-bottle3.png,10.0,12,1
31,236,0.5502,bird,bird,1111_cc_hum_1_bird9-bear3.png,10.0,12,1
31,237,0.584,car,car,1111_cc_hum_0_car_40_n03100240_6954.JPEG,10.0,12,0
31,238,1.1165,bird,bird,1111_cc_hum_0_bird_40_n02033041_6633.JPEG,10.0,12,0
31,239,1.7338,bottle,bottle,1111_cc_hum_0_bottle_40_n04560804_32398.JPEG,10.0,12,0
31,240,0.7837,keyboard,keyboard,1111_cc_hum_0_keyboard_40_n04505470_1430.JPEG,10.0,12,0
31,241,0.6004,truck,truck,1111_cc_hum_0_truck_40_n03417042_10043.JPEG,10.0,13,0
31,242,1.7334,airplane,airplane,1111_cc_hum_0_airplane_40_n02690373_3874.JPEG,10.0,13,0
31,243,1.6671,oven,oven,1111_cc_hum_0_oven_40_n04111531_14611.JPEG,10.0,13,0
31,244,0.8339,knife,bird,1111_cc_hum_1_bird1-elephant2.png,10.0,13,1
31,245,0.6173,truck,truck,1111_cc_hum_1_truck2-car3.png,10.0,13,1
31,246,0.4674,clock,clock,1111_cc_hum_1_clock6-bird3.png,10.0,13,1
31,247,0.5339,elephant,elephant,1111_cc_hum_1_elephant9-bicycle2.png,10.0,13,1
31,248,0.9005,dog,dog,1111_cc_hum_1_dog4-chair1.png,10.0,13,1
31,249,1.6168,bear,bear,1111_cc_hum_0_bear_40_n02132136_1934.JPEG,10.0,13,0
31,250,0.4501,bird,bird,1111_cc_hum_1_bird6-airplane2.png,10.0,13,1
31,251,1.1669,elephant,elephant,1111_cc_hum_1_elephant9-boat3.png,10.0,13,1
31,252,1.7834,truck,truck,1111_cc_hum_1_truck8-elephant1.png,10.0,13,1
31,253,1.1835,chair,chair,1111_cc_hum_1_chair9-bird3.png,10.0,13,1
31,254,0.7838,chair,chair,1111_cc_hum_1_chair1-cat3.png,10.0,13,1
31,255,0.8501,cat,cat,1111_cc_hum_0_cat_40_n02123394_2364.JPEG,10.0,13,0
31,256,1.25,clock,clock,1111_cc_hum_1_clock9-chair3.png,10.0,13,1
31,257,1.1837,car,car,1111_cc_hum_1_car1-chair3.png,10.0,13,1
31,258,0.8837,chair,chair,1111_cc_hum_0_chair_40_n04099969_2267.JPEG,10.0,13,0
31,259,2.9835,clock,clock,1111_cc_hum_0_clock_40_n04548280_7490.JPEG,10.0,13,0
31,260,1.5501,oven,oven,1111_cc_hum_0_oven_40_n04111531_9844.JPEG,10.0,13,0
31,261,0.7004,keyboard,keyboard,1111_cc_hum_0_keyboard_40_n03085013_4160.JPEG,10.0,14,0
31,262,0.6669,bicycle,bicycle,1111_cc_hum_0_bicycle_40_n03792782_3047.JPEG,10.0,14,0
31,263,0.6338,car,car,1111_cc_hum_0_car_40_n04285008_9470.JPEG,10.0,14,0
31,264,1.0501,truck,truck,1111_cc_hum_1_truck2-airplane3.png,10.0,14,1
31,265,1.1671,bear,bear,1111_cc_hum_1_bear2-keyboard2.png,10.0,14,1
31,266,0.5672,bicycle,bicycle,1111_cc_hum_0_bicycle_40_n03792782_17337.JPEG,10.0,14,0
31,267,0.3669,car,car,1111_cc_hum_0_car_40_n03100240_418.JPEG,10.0,14,0
31,268,0.5,keyboard,keyboard,1111_cc_hum_1_keyboard1-clock1.png,10.0,14,1
31,269,0.7171,knife,bottle,1111_cc_hum_1_bottle1-cat3.png,10.0,14,1
31,270,1.6502,bear,bear,1111_cc_hum_1_bear6-clock1.png,10.0,14,1
31,271,1.5339,elephant,cat,1111_cc_hum_1_cat3-oven2.png,10.0,14,1
31,272,0.3837,elephant,elephant,1111_cc_hum_1_elephant9-airplane2.png,10.0,14,1
31,273,0.5336,boat,boat,1111_cc_hum_1_boat5-car3.png,10.0,14,1
31,274,1.7169,knife,airplane,1111_cc_hum_1_airplane9-keyboard2.png,10.0,14,1
31,275,0.4672,keyboard,keyboard,1111_cc_hum_1_keyboard9-boat2.png,10.0,14,1
31,276,0.5504,truck,truck,1111_cc_hum_1_truck3-bicycle1.png,10.0,14,1
31,277,1.6172,truck,oven,1111_cc_hum_1_oven7-dog2.png,10.0,14,1
31,278,1.2837,boat,boat,1111_cc_hum_0_boat_40_n02951358_34441.JPEG,10.0,14,0
31,279,1.3169,bird,bird,1111_cc_hum_0_bird_40_n02007558_10725.JPEG,10.0,14,0
31,280,0.5004,elephant,elephant,1111_cc_hum_0_elephant_40_n02504458_7013.JPEG,10.0,14,0
31,281,0.6166,bear,bear,1111_cc_hum_0_bear_40_n02134084_6343.JPEG,10.0,15,0
31,282,0.8338,knife,knife,1111_cc_hum_0_knife_40_n03041632_4808.JPEG,10.0,15,0
31,283,1.0005,elephant,elephant,1111_cc_hum_0_elephant_40_n02504013_8385.JPEG,10.0,15,0
31,284,1.4001,car,oven,1111_cc_hum_1_oven6-knife3.png,10.0,15,1
31,285,0.3338,clock,clock,1111_cc_hum_1_clock6-knife2.png,10.0,15,1
31,286,1.0837,elephant,elephant,1111_cc_hum_1_elephant8-boat2.png,10.0,15,1
31,287,1.167,keyboard,knife,1111_cc_hum_1_knife9-bottle2.png,10.0,15,1
31,288,0.4834,car,car,1111_cc_hum_1_car10-dog1.png,10.0,15,1
31,289,0.5169,cat,cat,1111_cc_hum_1_cat2-bottle3.png,10.0,15,1
31,290,2.7501,keyboard,boat,1111_cc_hum_1_boat2-oven3.png,10.0,15,1
31,291,0.5341,car,car,1111_cc_hum_1_car5-knife2.png,10.0,15,1
31,292,0.5835,clock,clock,1111_cc_hum_1_clock1-truck3.png,10.0,15,1
31,293,0.5504,cat,cat,1111_cc_hum_1_cat10-clock1.png,10.0,15,1
31,294,0.5839,boat,boat,1111_cc_hum_0_boat_40_n02951358_15424.JPEG,10.0,15,0
31,295,0.7673,truck,truck,1111_cc_hum_0_truck_40_n04467665_50932.JPEG,10.0,15,0
31,296,3.2664,bicycle,dog,1111_cc_hum_1_dog9-car1.png,10.0,15,1
31,297,1.4503,keyboard,airplane,1111_cc_hum_1_airplane8-truck3.png,10.0,15,1
31,298,0.7005,dog,dog,1111_cc_hum_0_dog_40_n02097130_1834.JPEG,10.0,15,0
31,299,0.617,airplane,airplane,1111_cc_hum_0_airplane_40_n02690373_4243.JPEG,10.0,15,0
31,300,2.2837,knife,bottle,1111_cc_hum_0_bottle_40_n02823428_825.JPEG,10.0,15,0
31,301,2.1336,knife,bottle,1111_cc_hum_0_bottle_40_n04560804_13773.JPEG,10.0,16,0
31,302,0.4008,knife,knife,1111_cc_hum_0_knife_40_n03041632_105081.JPEG,10.0,16,0
31,303,0.3838,cat,cat,1111_cc_hum_0_cat_40_n02123159_3330.JPEG,10.0,16,0
31,304,0.7837,dog,dog,1111_cc_hum_1_dog3-bear3.png,10.0,16,1
31,305,0.8501,bottle,bottle,1111_cc_hum_1_bottle8-bicycle1.png,10.0,16,1
31,306,0.3343,car,car,1111_cc_hum_1_car3-elephant3.png,10.0,16,1
31,307,1.4837,truck,truck,1111_cc_hum_1_truck1-cat1.png,10.0,16,1
31,308,1.1338,chair,chair,1111_cc_hum_1_chair4-truck2.png,10.0,16,1
31,309,0.8169,bird,bird,1111_cc_hum_0_bird_40_n01601694_13334.JPEG,10.0,16,0
31,310,0.4173,car,car,1111_cc_hum_1_car4-bear3.png,10.0,16,1
31,311,1.2506,car,knife,1111_cc_hum_1_knife5-oven2.png,10.0,16,1
31,312,1.3173,clock,oven,1111_cc_hum_1_oven5-keyboard2.png,10.0,16,1
31,313,0.8173,dog,dog,1111_cc_hum_1_dog4-bird1.png,10.0,16,1
31,314,0.7169,bicycle,bicycle,1111_cc_hum_1_bicycle2-dog1.png,10.0,16,1
31,315,0.7003,clock,clock,1111_cc_hum_0_clock_40_n03196217_6809.JPEG,10.0,16,0
31,316,1.4498,truck,truck,1111_cc_hum_1_truck1-bear1.png,10.0,16,1
31,317,1.2166,keyboard,keyboard,1111_cc_hum_1_keyboard6-bottle2.png,10.0,16,1
31,318,0.5338,keyboard,keyboard,1111_cc_hum_0_keyboard_40_n03085013_1483.JPEG,10.0,16,0
31,319,0.8505,chair,chair,1111_cc_hum_0_chair_40_n03376595_4309.JPEG,10.0,16,0
31,320,2.7003,knife,dog,1111_cc_hum_0_dog_40_n02112018_370.JPEG,10.0,16,0
42,1,0.8336,oven,oven,1111_cc_hum_0_oven_40_n04111531_23215.JPEG,11.0,1,0
42,2,0.7002,keyboard,keyboard,1111_cc_hum_0_keyboard_40_n03085013_19436.JPEG,11.0,1,0
42,3,0.3506,boat,boat,1111_cc_hum_0_boat_40_n02951358_2853.JPEG,11.0,1,0
42,4,0.3504,bear,bear,1111_cc_hum_1_bear8-bottle1.png,11.0,1,1
42,5,1.1003,elephant,cat,1111_cc_hum_1_cat5-elephant2.png,11.0,1,1
42,6,1.6499,truck,truck,1111_cc_hum_1_truck5-car1.png,11.0,1,1
42,7,0.4005,airplane,airplane,1111_cc_hum_1_airplane1-clock1.png,11.0,1,1
42,8,0.3004,car,car,1111_cc_hum_1_car10-bicycle2.png,11.0,1,1
42,9,0.2504,cat,cat,1111_cc_hum_0_cat_40_n02123045_8774.JPEG,11.0,1,0
42,10,5.1832,bear,boat,1111_cc_hum_1_boat7-cat3.png,11.0,1,1
42,11,6.7161,bird,knife,1111_cc_hum_1_knife7-car2.png,11.0,1,1
42,12,0.5674,elephant,elephant,1111_cc_hum_1_elephant8-dog1.png,11.0,1,1
42,13,0.5841,keyboard,keyboard,1111_cc_hum_1_keyboard6-bicycle1.png,11.0,1,1
42,14,0.5171,cat,cat,1111_cc_hum_1_cat5-airplane2.png,11.0,1,1
42,15,2.3,chair,knife,1111_cc_hum_1_knife10-chair1.png,11.0,1,1
42,16,0.5169,clock,clock,1111_cc_hum_0_clock_40_n04548280_2518.JPEG,11.0,1,0
42,17,0.3341,bear,bear,1111_cc_hum_1_bear8-elephant2.png,11.0,1,1
42,18,0.2005,dog,dog,1111_cc_hum_0_dog_40_n02101388_2075.JPEG,11.0,1,0
42,19,0.2839,boat,boat,1111_cc_hum_0_boat_40_n04612504_30742.JPEG,11.0,1,0
42,20,0.5504,car,car,1111_cc_hum_0_car_40_n03100240_6805.JPEG,11.0,1,0
42,21,0.9338,knife,knife,1111_cc_hum_0_knife_40_n03041632_24114.JPEG,11.0,2,0
42,22,0.5505,car,car,1111_cc_hum_0_car_40_n04285008_3280.JPEG,11.0,2,0
42,23,0.217,elephant,elephant,1111_cc_hum_0_elephant_40_n02504013_1916.JPEG,11.0,2,0
42,24,0.6672,knife,knife,1111_cc_hum_1_knife8-bicycle1.png,11.0,2,1
42,25,0.4836,dog,dog,1111_cc_hum_1_dog6-clock1.png,11.0,2,1
42,26,0.7338,bicycle,bicycle,1111_cc_hum_1_bicycle3-bird1.png,11.0,2,1
42,27,2.2333,airplane,airplane,1111_cc_hum_1_airplane2-bear1.png,11.0,2,1
42,28,0.3337,car,car,1111_cc_hum_1_car8-chair1.png,11.0,2,1
42,29,0.4004,clock,clock,1111_cc_hum_1_clock7-cat2.png,11.0,2,1
42,30,7.2327,boat,airplane,1111_cc_hum_1_airplane2-dog1.png,11.0,2,1
42,31,1.1005,chair,chair,1111_cc_hum_0_chair_40_n03376595_4469.JPEG,11.0,2,0
42,32,0.6002,bird,bird,1111_cc_hum_1_bird9-dog2.png,11.0,2,1
42,33,0.4171,car,car,1111_cc_hum_1_car5-truck3.png,11.0,2,1
42,34,0.417,bear,bear,1111_cc_hum_0_bear_40_n02134084_5027.JPEG,11.0,2,0
42,35,0.5005,bicycle,bicycle,1111_cc_hum_1_bicycle4-oven3.png,11.0,2,1
42,36,0.934,dog,dog,1111_cc_hum_1_dog1-bear1.png,11.0,2,1
42,37,5.7166,boat,airplane,1111_cc_hum_1_airplane4-elephant1.png,11.0,2,1
42,38,1.1673,bottle,bottle,1111_cc_hum_0_bottle_40_n04560804_12278.JPEG,11.0,2,0
42,39,0.9506,chair,chair,1111_cc_hum_0_chair_40_n03376595_2566.JPEG,11.0,2,0
42,40,1.0173,truck,truck,1111_cc_hum_0_truck_40_n03417042_12133.JPEG,11.0,2,0
42,41,0.3837,bicycle,bicycle,1111_cc_hum_0_bicycle_40_n03792782_52601.JPEG,11.0,3,0
42,42,0.3006,cat,cat,1111_cc_hum_0_cat_40_n02124075_9716.JPEG,11.0,3,0
42,43,1.3668,bear,bear,1111_cc_hum_0_bear_40_n02134084_2004.JPEG,11.0,3,0
42,44,0.4505,elephant,elephant,1111_cc_hum_1_elephant5-bottle2.png,11.0,3,1
42,45,0.3670000000000001,bird,bird,1111_cc_hum_1_bird1-oven1.png,11.0,3,1
42,46,0.4668,clock,clock,1111_cc_hum_1_clock9-cat1.png,11.0,3,1
42,47,0.6669,chair,chair,1111_cc_hum_1_chair7-truck3.png,11.0,3,1
42,48,0.4004,car,car,1111_cc_hum_1_car10-keyboard2.png,11.0,3,1
42,49,0.8504,truck,truck,1111_cc_hum_1_truck2-boat3.png,11.0,3,1
42,50,0.8339,truck,truck,1111_cc_hum_0_truck_40_n03796401_4309.JPEG,11.0,3,0
42,51,0.5336,cat,cat,1111_cc_hum_1_cat1-airplane1.png,11.0,3,1
42,52,0.8006,bicycle,bicycle,1111_cc_hum_1_bicycle1-clock3.png,11.0,3,1
42,53,0.8504,elephant,elephant,1111_cc_hum_1_elephant2-bird1.png,11.0,3,1
42,54,0.9339,bottle,bottle,1111_cc_hum_1_bottle9-truck1.png,11.0,3,1
42,55,0.4506,keyboard,keyboard,1111_cc_hum_0_keyboard_40_n04505470_933.JPEG,11.0,3,0
42,56,0.6337,car,car,1111_cc_hum_1_car4-boat1.png,11.0,3,1
42,57,2.3669,chair,chair,1111_cc_hum_1_chair9-boat2.png,11.0,3,1
42,58,0.5339,knife,knife,1111_cc_hum_0_knife_40_n03041632_24277.JPEG,11.0,3,0
42,59,0.8338,dog,dog,1111_cc_hum_0_dog_40_n02088632_2814.JPEG,11.0,3,0
42,60,1.4338,oven,oven,1111_cc_hum_0_oven_40_n04111531_1054.JPEG,11.0,3,0
45,1,1.1336,clock,clock,1111_cc_hum_0_clock_40_n03196217_585.JPEG,12.0,4,0
45,2,0.8006,bird,bird,1111_cc_hum_0_bird_40_n01530575_4260.JPEG,12.0,4,0
45,3,0.9505,airplane,airplane,1111_cc_hum_0_airplane_40_n02690373_6853.JPEG,12.0,4,0
45,4,4.9667,airplane,elephant,1111_cc_hum_1_elephant10-knife3.png,12.0,4,1
45,5,1.1833,truck,truck,1111_cc_hum_1_truck2-bottle3.png,12.0,4,1
45,6,0.9333,truck,truck,1111_cc_hum_1_truck1-knife1.png,12.0,4,1
45,7,0.5842,chair,chair,1111_cc_hum_1_chair10-bird3.png,12.0,4,1
45,8,1.8338,clock,clock,1111_cc_hum_1_clock6-chair3.png,12.0,4,1
45,9,0.7508,clock,clock,1111_cc_hum_1_clock2-knife1.png,12.0,4,1
45,10,3.7167,elephant,bear,1111_cc_hum_1_bear9-keyboard3.png,12.0,4,1
45,11,0.7337,dog,dog,1111_cc_hum_1_dog5-bear3.png,12.0,4,1
45,12,2.0837,bottle,bottle,1111_cc_hum_0_bottle_40_n04591713_2718.JPEG,12.0,4,0
45,13,7.9666,chair,boat,1111_cc_hum_1_boat7-keyboard3.png,12.0,4,1
45,14,0.8502,chair,chair,1111_cc_hum_1_chair4-oven2.png,12.0,4,1
45,15,0.6,clock,clock,1111_cc_hum_1_clock4-airplane1.png,12.0,4,1
45,16,0.6004,bird,bird,1111_cc_hum_0_bird_40_n02037110_11551.JPEG,12.0,4,0
45,17,1.0007,boat,boat,1111_cc_hum_1_boat6-car1.png,12.0,4,1
45,18,0.767,airplane,airplane,1111_cc_hum_0_airplane_40_n02690373_6999.JPEG,12.0,4,0
45,19,1.1005,bicycle,bicycle,1111_cc_hum_0_bicycle_40_n03792782_14216.JPEG,12.0,4,0
45,20,0.6505,elephant,elephant,1111_cc_hum_0_elephant_40_n02504458_4954.JPEG,12.0,4,0
45,21,1.1671,keyboard,keyboard,1111_cc_hum_0_keyboard_40_n03085013_19436.JPEG,12.0,1,0
45,22,0.5836,clock,clock,1111_cc_hum_0_clock_40_n04548280_2518.JPEG,12.0,1,0
45,23,1.6001,oven,oven,1111_cc_hum_0_oven_40_n04111531_23215.JPEG,12.0,1,0
45,24,1.2501,chair,knife,1111_cc_hum_1_knife10-chair1.png,12.0,1,1
45,25,0.9004,bear,bear,1111_cc_hum_1_bear8-elephant2.png,12.0,1,1
45,26,7.2499,bottle,boat,1111_cc_hum_1_boat7-cat3.png,12.0,1,1
45,27,0.7836,keyboard,keyboard,1111_cc_hum_1_keyboard6-bicycle1.png,12.0,1,1
45,28,0.7839,elephant,elephant,1111_cc_hum_1_elephant8-dog1.png,12.0,1,1
45,29,0.5668,car,car,1111_cc_hum_0_car_40_n03100240_6805.JPEG,12.0,1,0
45,30,3.1829,dog,cat,1111_cc_hum_1_cat5-elephant2.png,12.0,1,1
45,31,0.9671,airplane,airplane,1111_cc_hum_1_airplane1-clock1.png,12.0,1,1
45,32,0.4838,bear,bear,1111_cc_hum_1_bear8-bottle1.png,12.0,1,1
45,33,0.9175,boat,boat,1111_cc_hum_0_boat_40_n02951358_2853.JPEG,12.0,1,0
45,34,6.4328,airplane,cat,1111_cc_hum_1_cat5-airplane2.png,12.0,1,1
45,35,0.5669,car,car,1111_cc_hum_1_car10-bicycle2.png,12.0,1,1
45,36,0.7339,truck,truck,1111_cc_hum_1_truck5-car1.png,12.0,1,1
45,37,3.567,car,knife,1111_cc_hum_1_knife7-car2.png,12.0,1,1
45,38,0.6337,cat,cat,1111_cc_hum_0_cat_40_n02123045_8774.JPEG,12.0,1,0
45,39,0.5005,dog,dog,1111_cc_hum_0_dog_40_n02101388_2075.JPEG,12.0,1,0
45,40,0.6839,boat,boat,1111_cc_hum_0_boat_40_n04612504_30742.JPEG,12.0,1,0
45,41,2.884,bottle,bottle,1111_cc_hum_0_bottle_40_n04560804_12278.JPEG,12.0,2,0
45,42,5.1664,knife,knife,1111_cc_hum_0_knife_40_n03041632_24114.JPEG,12.0,2,0
45,43,0.9838,bear,bear,1111_cc_hum_0_bear_40_n02134084_5027.JPEG,12.0,2,0
45,44,6.6663,elephant,airplane,1111_cc_hum_1_airplane2-dog1.png,12.0,2,1
45,45,0.7005,elephant,elephant,1111_cc_hum_0_elephant_40_n02504013_1916.JPEG,12.0,2,0
45,46,0.6171,car,car,1111_cc_hum_1_car8-chair1.png,12.0,2,1
45,47,0.584,bird,bird,1111_cc_hum_1_bird9-dog2.png,12.0,2,1
45,48,1.1502,chair,chair,1111_cc_hum_0_chair_40_n03376595_4469.JPEG,12.0,2,0
45,49,0.6169,car,car,1111_cc_hum_1_car5-truck3.png,12.0,2,1
45,50,0.7673,bicycle,bicycle,1111_cc_hum_1_bicycle4-oven3.png,12.0,2,1
45,51,0.7004,dog,dog,1111_cc_hum_1_dog1-bear1.png,12.0,2,1
45,52,3.5665,boat,airplane,1111_cc_hum_1_airplane4-elephant1.png,12.0,2,1
45,53,0.5667,dog,dog,1111_cc_hum_1_dog6-clock1.png,12.0,2,1
45,54,0.7009,bicycle,bicycle,1111_cc_hum_1_bicycle3-bird1.png,12.0,2,1
45,55,0.8503,knife,knife,1111_cc_hum_1_knife8-bicycle1.png,12.0,2,1
45,56,3.2002,airplane,airplane,1111_cc_hum_1_airplane2-bear1.png,12.0,2,1
45,57,0.6337,clock,clock,1111_cc_hum_1_clock7-cat2.png,12.0,2,1
45,58,0.6672,truck,truck,1111_cc_hum_0_truck_40_n03417042_12133.JPEG,12.0,2,0
45,59,0.4668,chair,chair,1111_cc_hum_0_chair_40_n03376595_2566.JPEG,12.0,2,0
45,60,0.8339,car,car,1111_cc_hum_0_car_40_n04285008_3280.JPEG,12.0,2,0
48,1,9.7993,car,knife,1111_cc_hum_0_knife_40_n03041632_24277.JPEG,10.0,3,0
48,2,1.5173,oven,oven,1111_cc_hum_0_oven_40_n04111531_1054.JPEG,10.0,3,0
48,3,2.1169,cat,cat,1111_cc_hum_0_cat_40_n02124075_9716.JPEG,10.0,3,0
48,4,0.8838,bird,bird,1111_cc_hum_1_bird1-oven1.png,10.0,3,1
48,5,0.8501,car,car,1111_cc_hum_1_car10-keyboard2.png,10.0,3,1
48,6,1.967,bicycle,bicycle,1111_cc_hum_1_bicycle1-clock3.png,10.0,3,1
48,7,1.3669,chair,chair,1111_cc_hum_1_chair7-truck3.png,10.0,3,1
48,8,1.0673,truck,truck,1111_cc_hum_1_truck2-boat3.png,10.0,3,1
48,9,1.617,car,car,1111_cc_hum_1_car4-boat1.png,10.0,3,1
48,10,2.6503,bicycle,bicycle,1111_cc_hum_0_bicycle_40_n03792782_52601.JPEG,10.0,3,0
48,11,1.1339,cat,cat,1111_cc_hum_1_cat1-airplane1.png,10.0,3,1
48,12,0.9669,bottle,bottle,1111_cc_hum_1_bottle9-truck1.png,10.0,3,1
48,13,2.1169,elephant,elephant,1111_cc_hum_1_elephant2-bird1.png,10.0,3,1
48,14,2.5165,clock,clock,1111_cc_hum_1_clock9-cat1.png,10.0,3,1
48,15,0.8168,elephant,elephant,1111_cc_hum_1_elephant5-bottle2.png,10.0,3,1
48,16,1.3002,chair,chair,1111_cc_hum_1_chair9-boat2.png,10.0,3,1
48,17,1.867,dog,dog,1111_cc_hum_0_dog_40_n02088632_2814.JPEG,10.0,3,0
48,18,1.0339,truck,truck,1111_cc_hum_0_truck_40_n03796401_4309.JPEG,10.0,3,0
48,19,1.1674,keyboard,keyboard,1111_cc_hum_0_keyboard_40_n04505470_933.JPEG,10.0,3,0
48,20,1.7335,bear,bear,1111_cc_hum_0_bear_40_n02134084_2004.JPEG,10.0,3,0
48,21,0.6002,airplane,airplane,1111_cc_hum_0_airplane_40_n02690373_6999.JPEG,10.0,4,0
48,22,0.7504,bird,bird,1111_cc_hum_0_bird_40_n02037110_11551.JPEG,10.0,4,0
48,23,1.2171,elephant,elephant,1111_cc_hum_0_elephant_40_n02504458_4954.JPEG,10.0,4,0
48,24,0.6503,clock,clock,1111_cc_hum_1_clock2-knife1.png,10.0,4,1
48,25,9.1995,bear,bear,1111_cc_hum_1_bear9-keyboard3.png,10.0,4,1
48,26,0.4669,airplane,airplane,1111_cc_hum_0_airplane_40_n02690373_6853.JPEG,10.0,4,0
48,27,1.6336,boat,boat,1111_cc_hum_1_boat6-car1.png,10.0,4,1
48,28,0.7167,elephant,elephant,1111_cc_hum_1_elephant10-knife3.png,10.0,4,1
48,29,0.4669,chair,chair,1111_cc_hum_1_chair4-oven2.png,10.0,4,1
48,30,0.5336,truck,truck,1111_cc_hum_1_truck1-knife1.png,10.0,4,1
48,31,5.7832,bottle,boat,1111_cc_hum_1_boat7-keyboard3.png,10.0,4,1
48,32,12.3159,bear,dog,1111_cc_hum_1_dog5-bear3.png,10.0,4,1
48,33,0.9503,chair,chair,1111_cc_hum_1_chair10-bird3.png,10.0,4,1
48,34,15.1487,clock,clock,1111_cc_hum_0_clock_40_n03196217_585.JPEG,10.0,4,0
48,35,0.6004,clock,clock,1111_cc_hum_1_clock6-chair3.png,10.0,4,1
48,36,0.7339,truck,truck,1111_cc_hum_1_truck2-bottle3.png,10.0,4,1
48,37,0.4505,clock,clock,1111_cc_hum_1_clock4-airplane1.png,10.0,4,1
48,38,14.1656,bottle,bicycle,1111_cc_hum_0_bicycle_40_n03792782_14216.JPEG,10.0,4,0
48,39,0.8839,bottle,bottle,1111_cc_hum_0_bottle_40_n04591713_2718.JPEG,10.0,4,0
48,40,0.7007,bird,bird,1111_cc_hum_0_bird_40_n01530575_4260.JPEG,10.0,4,0
48,41,0.8337,oven,oven,1111_cc_hum_0_oven_40_n04111531_23215.JPEG,10.0,1,0
48,42,0.7337,cat,cat,1111_cc_hum_0_cat_40_n02123045_8774.JPEG,10.0,1,0
48,43,0.6006,car,car,1111_cc_hum_0_car_40_n03100240_6805.JPEG,10.0,1,0
48,44,1.3835,elephant,elephant,1111_cc_hum_1_elephant8-dog1.png,10.0,1,1
48,45,0.8836,airplane,airplane,1111_cc_hum_1_airplane1-clock1.png,10.0,1,1
48,46,3.0334,dog,dog,1111_cc_hum_0_dog_40_n02101388_2075.JPEG,10.0,1,0
48,47,2.6,bird,boat,1111_cc_hum_1_boat7-cat3.png,10.0,1,1
48,48,1.6,truck,truck,1111_cc_hum_1_truck5-car1.png,10.0,1,1
48,49,0.8838,keyboard,keyboard,1111_cc_hum_1_keyboard6-bicycle1.png,10.0,1,1
48,50,3.5,elephant,cat,1111_cc_hum_1_cat5-elephant2.png,10.0,1,1
48,51,1.1671,cat,car,1111_cc_hum_1_car10-bicycle2.png,10.0,1,1
48,52,0.9836,bear,bear,1111_cc_hum_1_bear8-bottle1.png,10.0,1,1
48,53,1.7003,car,knife,1111_cc_hum_1_knife7-car2.png,10.0,1,1
48,54,1.4174,keyboard,keyboard,1111_cc_hum_0_keyboard_40_n03085013_19436.JPEG,10.0,1,0
48,55,1.3837,keyboard,knife,1111_cc_hum_1_knife10-chair1.png,10.0,1,1
48,56,0.5173,bear,bear,1111_cc_hum_1_bear8-elephant2.png,10.0,1,1
48,57,3.3667,bird,cat,1111_cc_hum_1_cat5-airplane2.png,10.0,1,1
48,58,0.8008,boat,boat,1111_cc_hum_0_boat_40_n04612504_30742.JPEG,10.0,1,0
48,59,0.6838,boat,boat,1111_cc_hum_0_boat_40_n02951358_2853.JPEG,10.0,1,0
48,60,0.6338,clock,clock,1111_cc_hum_0_clock_40_n04548280_2518.JPEG,10.0,1,0
48,61,34.6794,oven,bottle,1111_cc_hum_0_bottle_40_n04560804_12278.JPEG,10.0,2,0
48,62,6.0165,knife,knife,1111_cc_hum_0_knife_40_n03041632_24114.JPEG,10.0,2,0
48,63,0.667,chair,chair,1111_cc_hum_0_chair_40_n03376595_2566.JPEG,10.0,2,0
48,64,0.9838,keyboard,knife,1111_cc_hum_1_knife8-bicycle1.png,10.0,2,1
48,65,1.6837,bird,airplane,1111_cc_hum_1_airplane2-dog1.png,10.0,2,1
48,66,1.5001,clock,clock,1111_cc_hum_1_clock7-cat2.png,10.0,2,1
48,67,1.0505,car,car,1111_cc_hum_1_car8-chair1.png,10.0,2,1
48,68,1.0171,bicycle,bicycle,1111_cc_hum_1_bicycle4-oven3.png,10.0,2,1
48,69,1.067,bicycle,bicycle,1111_cc_hum_1_bicycle3-bird1.png,10.0,2,1
48,70,0.8671,truck,truck,1111_cc_hum_0_truck_40_n03417042_12133.JPEG,10.0,2,0
48,71,0.8673,bird,bird,1111_cc_hum_1_bird9-dog2.png,10.0,2,1
48,72,0.767,truck,car,1111_cc_hum_1_car5-truck3.png,10.0,2,1
48,73,5.8331,bird,airplane,1111_cc_hum_1_airplane4-elephant1.png,10.0,2,1
48,74,1.3,bird,airplane,1111_cc_hum_1_airplane2-bear1.png,10.0,2,1
48,75,0.8673,dog,dog,1111_cc_hum_1_dog1-bear1.png,10.0,2,1
48,76,0.7506,elephant,elephant,1111_cc_hum_0_elephant_40_n02504013_1916.JPEG,10.0,2,0
48,77,0.9505,dog,dog,1111_cc_hum_1_dog6-clock1.png,10.0,2,1
48,78,0.7173,chair,chair,1111_cc_hum_0_chair_40_n03376595_4469.JPEG,10.0,2,0
48,79,1.067,car,car,1111_cc_hum_0_car_40_n04285008_3280.JPEG,10.0,2,0
48,80,0.8172,bear,bear,1111_cc_hum_0_bear_40_n02134084_5027.JPEG,10.0,2,0
48,81,0.8002,bear,bear,1111_cc_hum_0_bear_40_n02133161_2137.JPEG,10.0,5,0
48,82,1.3004,cat,cat,1111_cc_hum_0_cat_40_n02123045_964.JPEG,10.0,5,0
48,83,0.9999,dog,dog,1111_cc_hum_0_dog_40_n02102318_11816.JPEG,10.0,5,0
48,84,2.7671,cat,cat,1111_cc_hum_1_cat5-knife2.png,10.0,5,1
48,85,0.8838,truck,truck,1111_cc_hum_0_truck_40_n03417042_14000.JPEG,10.0,5,0
48,86,0.884,elephant,elephant,1111_cc_hum_1_elephant8-clock2.png,10.0,5,1
48,87,0.8173,truck,truck,1111_cc_hum_1_truck2-chair1.png,10.0,5,1
48,88,1.5169,bird,bear,1111_cc_hum_1_bear10-knife2.png,10.0,5,1
48,89,10.1159,clock,keyboard,1111_cc_hum_1_keyboard3-bicycle2.png,10.0,5,1
48,90,1.6168,bird,bear,1111_cc_hum_1_bear10-clock1.png,10.0,5,1
48,91,3.2001,bird,airplane,1111_cc_hum_1_airplane6-chair3.png,10.0,5,1
48,92,27.3802,dog,knife,1111_cc_hum_1_knife1-dog1.png,10.0,5,1
48,93,0.7836,bicycle,bicycle,1111_cc_hum_0_bicycle_40_n02835271_276.JPEG,10.0,5,0
48,94,3.6164,bird,cat,1111_cc_hum_1_cat10-bird2.png,10.0,5,1
48,95,1.0501,oven,oven,1111_cc_hum_1_oven1-boat3.png,10.0,5,1
48,96,7.1999,clock,boat,1111_cc_hum_1_boat3-car3.png,10.0,5,1
48,97,0.9173,elephant,elephant,1111_cc_hum_1_elephant4-clock3.png,10.0,5,1
48,98,1.4169,boat,boat,1111_cc_hum_0_boat_40_n02951358_4826.JPEG,10.0,5,0
48,99,2.0834,car,knife,1111_cc_hum_0_knife_40_n03041632_14224.JPEG,10.0,5,0
48,100,0.5838,elephant,elephant,1111_cc_hum_0_elephant_40_n02504458_1848.JPEG,10.0,5,0
48,101,1.3502,car,car,1111_cc_hum_0_car_40_n02814533_23512.JPEG,10.0,6,0
48,102,2.7664,airplane,airplane,1111_cc_hum_0_airplane_40_n02690373_8789.JPEG,10.0,6,0
48,103,0.9337,bear,bear,1111_cc_hum_0_bear_40_n02134418_4041.JPEG,10.0,6,0
48,104,0.484,chair,chair,1111_cc_hum_1_chair1-truck3.png,10.0,6,1
48,105,0.9004,dog,dog,1111_cc_hum_1_dog4-oven1.png,10.0,6,1
48,106,0.4337,clock,clock,1111_cc_hum_1_clock3-cat1.png,10.0,6,1
48,107,0.6336,bicycle,bicycle,1111_cc_hum_1_bicycle3-oven3.png,10.0,6,1
48,108,2.0504,cat,cat,1111_cc_hum_1_cat5-bottle1.png,10.0,6,1
48,109,2.1835,chair,chair,1111_cc_hum_0_chair_40_n04429376_9212.JPEG,10.0,6,0
48,110,0.7168,chair,chair,1111_cc_hum_1_chair10-airplane2.png,10.0,6,1
48,111,1.1837,bird,bird,1111_cc_hum_1_bird5-truck2.png,10.0,6,1
48,112,1.0675,bottle,bottle,1111_cc_hum_1_bottle3-cat3.png,10.0,6,1
48,113,0.8671,elephant,elephant,1111_cc_hum_1_elephant3-keyboard2.png,10.0,6,1
48,114,0.5834,bear,bear,1111_cc_hum_1_bear8-dog1.png,10.0,6,1
48,115,1.6338,bird,bird,1111_cc_hum_0_bird_40_n01843383_8077.JPEG,10.0,6,0
48,116,1.0338,knife,knife,1111_cc_hum_1_knife1-elephant1.png,10.0,6,1
48,117,2.5171,bird,car,1111_cc_hum_1_car4-bird1.png,10.0,6,1
48,118,0.8168,knife,knife,1111_cc_hum_0_knife_40_n03041632_11797.JPEG,10.0,6,0
48,119,0.6674,bottle,bottle,1111_cc_hum_0_bottle_40_n04591713_5754.JPEG,10.0,6,0
48,120,1.0169,elephant,elephant,1111_cc_hum_0_elephant_40_n02504458_4336.JPEG,10.0,6,0
48,121,1.7669,dog,dog,1111_cc_hum_0_dog_40_n02099712_5781.JPEG,10.0,7,0
48,122,0.7339,bottle,bottle,1111_cc_hum_0_bottle_40_n03937543_2357.JPEG,10.0,7,0
48,123,0.8837,keyboard,keyboard,1111_cc_hum_0_keyboard_40_n03085013_17762.JPEG,10.0,7,0
48,124,1.5669,clock,clock,1111_cc_hum_1_clock1-bear1.png,10.0,7,1
48,125,0.5839,car,car,1111_cc_hum_1_car9-bicycle2.png,10.0,7,1
48,126,1.6337,keyboard,keyboard,1111_cc_hum_1_keyboard9-airplane3.png,10.0,7,1
48,127,0.9667,bottle,bottle,1111_cc_hum_1_bottle3-chair3.png,10.0,7,1
48,128,3.0667,elephant,dog,1111_cc_hum_1_dog7-keyboard3.png,10.0,7,1
48,129,2.0833,boat,boat,1111_cc_hum_0_boat_40_n02951358_5718.JPEG,10.0,7,0
48,130,0.9337,car,car,1111_cc_hum_1_car10-elephant2.png,10.0,7,1
48,131,0.95,clock,clock,1111_cc_hum_1_clock9-airplane1.png,10.0,7,1
48,132,1.6168,bicycle,bicycle,1111_cc_hum_0_bicycle_40_n03792782_33855.JPEG,10.0,7,0
48,133,1.2835,bicycle,bicycle,1111_cc_hum_1_bicycle10-boat3.png,10.0,7,1
48,134,12.6493,oven,knife,1111_cc_hum_1_knife6-oven3.png,10.0,7,1
48,135,1.6001,dog,dog,1111_cc_hum_1_dog1-boat3.png,10.0,7,1
48,136,0.7338,clock,clock,1111_cc_hum_1_clock3-car2.png,10.0,7,1
48,137,4.0999,bird,knife,1111_cc_hum_1_knife2-dog1.png,10.0,7,1
48,138,1.6171,cat,cat,1111_cc_hum_0_cat_40_n02123159_2684.JPEG,10.0,7,0
48,139,0.8502,bird,bird,1111_cc_hum_0_bird_40_n01537544_2772.JPEG,10.0,7,0
48,140,1.1499,oven,oven,1111_cc_hum_0_oven_40_n04111531_10011.JPEG,10.0,7,0
48,141,1.4169,truck,truck,1111_cc_hum_0_truck_40_n03417042_28078.JPEG,10.0,8,0
48,142,1.8168,oven,oven,1111_cc_hum_0_oven_40_n04111531_7034.JPEG,10.0,8,0
48,143,0.9505,chair,chair,1111_cc_hum_0_chair_40_n04099969_2398.JPEG,10.0,8,0
48,144,3.7166,bottle,car,1111_cc_hum_1_car2-knife3.png,10.0,8,1
48,145,0.9668,clock,clock,1111_cc_hum_0_clock_40_n04548280_1438.JPEG,10.0,8,0
48,146,0.9839,bird,bird,1111_cc_hum_1_bird8-elephant1.png,10.0,8,1
48,147,1.4004,bottle,dog,1111_cc_hum_1_dog2-bottle2.png,10.0,8,1
48,148,1.1006,elephant,bottle,1111_cc_hum_1_bottle7-bear1.png,10.0,8,1
48,149,15.5152,bird,chair,1111_cc_hum_1_chair8-keyboard3.png,10.0,8,1
48,150,1.2172,elephant,elephant,1111_cc_hum_1_elephant6-car3.png,10.0,8,1
48,151,2.7503,elephant,dog,1111_cc_hum_1_dog1-bird1.png,10.0,8,1
48,152,6.5166,bottle,boat,1111_cc_hum_1_boat7-bottle1.png,10.0,8,1
48,153,0.3666,car,car,1111_cc_hum_1_car8-bicycle2.png,10.0,8,1
48,154,0.5506,car,car,1111_cc_hum_1_car2-cat3.png,10.0,8,1
48,155,8.9993,keyboard,keyboard,1111_cc_hum_1_keyboard4-truck3.png,10.0,8,1
48,156,2.317,clock,clock,1111_cc_hum_0_clock_40_n03196217_5252.JPEG,10.0,8,0
48,157,4.7664,oven,oven,1111_cc_hum_1_oven3-bear2.png,10.0,8,1
48,158,2.0672,keyboard,keyboard,1111_cc_hum_0_keyboard_40_n04505470_2115.JPEG,10.0,8,0
48,159,1.5338,car,car,1111_cc_hum_0_car_40_n02814533_82925.JPEG,10.0,8,0
48,160,0.9336,airplane,airplane,1111_cc_hum_0_airplane_40_n02690373_1071.JPEG,10.0,8,0
48,161,1.3168,clock,clock,1111_cc_hum_0_clock_40_n03196217_5478.JPEG,10.0,9,0
48,162,1.9668,bottle,bottle,1111_cc_hum_0_bottle_40_n04579145_1302.JPEG,10.0,9,0
48,163,0.9338,dog,dog,1111_cc_hum_0_dog_40_n02110806_16707.JPEG,10.0,9,0
48,164,0.6337,elephant,elephant,1111_cc_hum_1_elephant4-oven1.png,10.0,9,1
48,165,3.4672,cat,chair,1111_cc_hum_1_chair5-cat3.png,10.0,9,1
48,166,0.8668,keyboard,keyboard,1111_cc_hum_0_keyboard_40_n03085013_2122.JPEG,10.0,9,0
48,167,2.75,clock,clock,1111_cc_hum_1_clock8-airplane2.png,10.0,9,1
48,168,1.1334,keyboard,keyboard,1111_cc_hum_1_keyboard9-truck3.png,10.0,9,1
48,169,1.7838,bicycle,bicycle,1111_cc_hum_1_bicycle3-elephant2.png,10.0,9,1
48,170,1.9836,elephant,elephant,1111_cc_hum_1_elephant7-knife2.png,10.0,9,1
48,171,2.05,airplane,airplane,1111_cc_hum_1_airplane1-chair2.png,10.0,9,1
48,172,1.5507,bird,bird,1111_cc_hum_1_bird10-elephant2.png,10.0,9,1
48,173,0.9501,keyboard,keyboard,1111_cc_hum_1_keyboard4-cat2.png,10.0,9,1
48,174,1.3002,knife,knife,1111_cc_hum_0_knife_40_n03041632_26340.JPEG,10.0,9,0
48,175,2.9334,knife,bird,1111_cc_hum_1_bird6-car3.png,10.0,9,1
48,176,2.1837,elephant,elephant,1111_cc_hum_1_elephant7-keyboard3.png,10.0,9,1
48,177,1.0836,elephant,bear,1111_cc_hum_1_bear9-knife2.png,10.0,9,1
48,178,3.0831,boat,boat,1111_cc_hum_0_boat_40_n04273569_13091.JPEG,10.0,9,0
48,179,0.7337,chair,chair,1111_cc_hum_0_chair_40_n04429376_18127.JPEG,10.0,9,0
48,180,5.3665,oven,knife,1111_cc_hum_0_knife_40_n03041632_21723.JPEG,10.0,9,0
48,181,0.9005,elephant,elephant,1111_cc_hum_0_elephant_40_n02504458_4.JPEG,10.0,10,0
48,182,1.8999,bear,bear,1111_cc_hum_0_bear_40_n02134418_4895.JPEG,10.0,10,0
48,183,1.8669,cat,cat,1111_cc_hum_0_cat_40_n02124075_8351.JPEG,10.0,10,0
48,184,5.5996,keyboard,boat,1111_cc_hum_1_boat3-airplane2.png,10.0,10,1
48,185,0.7504,clock,clock,1111_cc_hum_1_clock3-bear3.png,10.0,10,1
48,186,2.2171,dog,dog,1111_cc_hum_1_dog9-bottle1.png,10.0,10,1
48,187,3.2501,bird,boat,1111_cc_hum_1_boat6-dog1.png,10.0,10,1
48,188,1.317,boat,boat,1111_cc_hum_1_boat9-bird1.png,10.0,10,1
48,189,1.6671,keyboard,keyboard,1111_cc_hum_1_keyboard7-knife1.png,10.0,10,1
48,190,2.0334,oven,oven,1111_cc_hum_0_oven_40_n04111531_9712.JPEG,10.0,10,0
48,191,3.467,bird,boat,1111_cc_hum_1_boat2-bird1.png,10.0,10,1
48,192,0.7336,cat,cat,1111_cc_hum_1_cat5-dog3.png,10.0,10,1
48,193,1.1336,bicycle,bicycle,1111_cc_hum_1_bicycle5-car3.png,10.0,10,1
48,194,0.7671,car,car,1111_cc_hum_1_car1-airplane1.png,10.0,10,1
48,195,1.5667,car,car,1111_cc_hum_0_car_40_n02814533_32461.JPEG,10.0,10,0
48,196,1.4998,airplane,airplane,1111_cc_hum_1_airplane8-bicycle3.png,10.0,10,1
48,197,0.8337,elephant,elephant,1111_cc_hum_1_elephant1-boat2.png,10.0,10,1
48,198,0.6837,chair,chair,1111_cc_hum_0_chair_40_n04429376_19101.JPEG,10.0,10,0
48,199,2.0836,clock,clock,1111_cc_hum_0_clock_40_n03196217_3943.JPEG,10.0,10,0
48,200,1.0675,airplane,airplane,1111_cc_hum_0_airplane_40_n02690373_19152.JPEG,10.0,10,0
48,201,1.35,truck,truck,1111_cc_hum_0_truck_40_n03417042_19905.JPEG,10.0,11,0
48,202,0.7838,elephant,elephant,1111_cc_hum_0_elephant_40_n02504013_6660.JPEG,10.0,11,0
48,203,1.6835,boat,boat,1111_cc_hum_0_boat_40_n04612504_8942.JPEG,10.0,11,0
48,204,0.9671,boat,boat,1111_cc_hum_1_boat3-clock3.png,10.0,11,1
48,205,9.6995,boat,cat,1111_cc_hum_1_cat5-chair3.png,10.0,11,1
48,206,0.9003,truck,truck,1111_cc_hum_1_truck10-bicycle1.png,10.0,11,1
48,207,1.2507,oven,oven,1111_cc_hum_0_oven_40_n04111531_9490.JPEG,10.0,11,0
48,208,2.3002,knife,knife,1111_cc_hum_1_knife6-boat3.png,10.0,11,1
48,209,1.6502,airplane,airplane,1111_cc_hum_1_airplane5-bicycle1.png,10.0,11,1
48,210,1.9337,oven,oven,1111_cc_hum_1_oven2-truck3.png,10.0,11,1
48,211,3.6661,oven,clock,1111_cc_hum_1_clock1-boat3.png,10.0,11,1
48,212,22.3308,cat,bird,1111_cc_hum_1_bird8-keyboard2.png,10.0,11,1
48,213,5.7002,bird,chair,1111_cc_hum_1_chair5-bird1.png,10.0,11,1
48,214,6.3153,cat,bottle,1111_cc_hum_1_bottle9-keyboard1.png,10.0,11,1
48,215,0.6504,elephant,elephant,1111_cc_hum_1_elephant1-bottle1.png,10.0,11,1
48,216,0.6006,cat,cat,1111_cc_hum_0_cat_40_n02124075_14094.JPEG,10.0,11,0
48,217,1.0166,bicycle,bicycle,1111_cc_hum_1_bicycle9-chair1.png,10.0,11,1
48,218,0.7338,bicycle,bicycle,1111_cc_hum_0_bicycle_40_n03792782_692.JPEG,10.0,11,0
48,219,0.4169,bicycle,bicycle,1111_cc_hum_0_bicycle_40_n03792782_3467.JPEG,10.0,11,0
48,220,0.6674,truck,truck,1111_cc_hum_0_truck_40_n03417042_16389.JPEG,10.0,11,0
48,221,0.6174,bird,bird,1111_cc_hum_0_bird_40_n01532829_22520.JPEG,10.0,12,0
48,222,31.5966,bear,bear,1111_cc_hum_0_bear_40_n02132136_6787.JPEG,10.0,12,0
48,223,0.4501,dog,dog,1111_cc_hum_0_dog_40_n02108000_324.JPEG,10.0,12,0
48,224,3.2498,bicycle,bicycle,1111_cc_hum_1_bicycle7-clock3.png,10.0,12,1
48,225,3.15,elephant,elephant,1111_cc_hum_1_elephant3-cat2.png,10.0,12,1
48,226,3.167,elephant,elephant,1111_cc_hum_1_elephant2-bottle3.png,10.0,12,1
48,227,1.2505,bottle,keyboard,1111_cc_hum_1_keyboard10-oven3.png,10.0,12,1
48,228,1.9,airplane,knife,1111_cc_hum_1_knife2-car3.png,10.0,12,1
48,229,1.5505,knife,knife,1111_cc_hum_1_knife2-bear2.png,10.0,12,1
48,230,1.3909,keyboard,keyboard,1111_cc_hum_0_keyboard_40_n04505470_1430.JPEG,10.0,12,0
48,231,0.7501,airplane,airplane,1111_cc_hum_0_airplane_40_n02690373_4728.JPEG,10.0,12,0
48,232,1.35,bird,bird,1111_cc_hum_1_bird9-bear3.png,10.0,12,1
48,233,1.2668,bird,bird,1111_cc_hum_1_bird10-clock1.png,10.0,12,1
48,234,1.2171,bicycle,bicycle,1111_cc_hum_1_bicycle4-truck3.png,10.0,12,1
48,235,2.8003,bicycle,bicycle,1111_cc_hum_1_bicycle1-dog3.png,10.0,12,1
48,236,2.0169,elephant,cat,1111_cc_hum_1_cat10-elephant3.png,10.0,12,1
48,237,4.4665,elephant,bear,1111_cc_hum_1_bear4-oven2.png,10.0,12,1
48,238,1.0503,car,car,1111_cc_hum_0_car_40_n03100240_6954.JPEG,10.0,12,0
48,239,1.7167,bottle,bottle,1111_cc_hum_0_bottle_40_n04560804_32398.JPEG,10.0,12,0
48,240,1.6174,bird,bird,1111_cc_hum_0_bird_40_n02033041_6633.JPEG,10.0,12,0
48,241,1.2839,car,clock,1111_cc_hum_0_clock_40_n04548280_7490.JPEG,10.0,13,0
48,242,1.617,truck,truck,1111_cc_hum_0_truck_40_n03417042_10043.JPEG,10.0,13,0
48,243,1.3168,cat,cat,1111_cc_hum_0_cat_40_n02123394_2364.JPEG,10.0,13,0
48,244,1.8174,clock,clock,1111_cc_hum_1_clock6-bird3.png,10.0,13,1
48,245,1.317,chair,chair,1111_cc_hum_1_chair1-cat3.png,10.0,13,1
48,246,3.3834,keyboard,car,1111_cc_hum_1_car1-chair3.png,10.0,13,1
48,247,1.3499,bird,bird,1111_cc_hum_1_bird1-elephant2.png,10.0,13,1
48,248,0.9837,truck,truck,1111_cc_hum_1_truck2-car3.png,10.0,13,1
48,249,1.1667,dog,dog,1111_cc_hum_1_dog4-chair1.png,10.0,13,1
48,250,1.5172,oven,oven,1111_cc_hum_0_oven_40_n04111531_14611.JPEG,10.0,13,0
48,251,0.9837,elephant,elephant,1111_cc_hum_1_elephant9-bicycle2.png,10.0,13,1
48,252,0.7002,airplane,airplane,1111_cc_hum_0_airplane_40_n02690373_3874.JPEG,10.0,13,0
48,253,2.35,chair,chair,1111_cc_hum_1_chair9-bird3.png,10.0,13,1
48,254,1.2837,truck,truck,1111_cc_hum_1_truck8-elephant1.png,10.0,13,1
48,255,0.8666,elephant,elephant,1111_cc_hum_1_elephant9-boat3.png,10.0,13,1
48,256,2.2836,clock,clock,1111_cc_hum_1_clock9-chair3.png,10.0,13,1
48,257,1.0005,bird,bird,1111_cc_hum_1_bird6-airplane2.png,10.0,13,1
48,258,1.2338,chair,chair,1111_cc_hum_0_chair_40_n04099969_2267.JPEG,10.0,13,0
48,259,43.8618,cat,oven,1111_cc_hum_0_oven_40_n04111531_9844.JPEG,10.0,13,0
48,260,0.8999,bear,bear,1111_cc_hum_0_bear_40_n02132136_1934.JPEG,10.0,13,0
48,261,0.7504,car,car,1111_cc_hum_0_car_40_n03100240_418.JPEG,10.0,14,0
48,262,2.2836,airplane,boat,1111_cc_hum_0_boat_40_n02951358_34441.JPEG,10.0,14,0
48,263,1.0336,keyboard,keyboard,1111_cc_hum_0_keyboard_40_n03085013_4160.JPEG,10.0,14,0
48,264,4.4002,airplane,boat,1111_cc_hum_1_boat5-car3.png,10.0,14,1
48,265,0.6839,elephant,elephant,1111_cc_hum_1_elephant9-airplane2.png,10.0,14,1
48,266,2.6333,airplane,airplane,1111_cc_hum_1_airplane9-keyboard2.png,10.0,14,1
48,267,1.5006,bottle,bottle,1111_cc_hum_1_bottle1-cat3.png,10.0,14,1
48,268,1.0507,truck,truck,1111_cc_hum_1_truck2-airplane3.png,10.0,14,1
48,269,1.3666,bicycle,bicycle,1111_cc_hum_0_bicycle_40_n03792782_17337.JPEG,10.0,14,0
48,270,2.5171,bird,cat,1111_cc_hum_1_cat3-oven2.png,10.0,14,1
48,271,1.6506,keyboard,keyboard,1111_cc_hum_1_keyboard1-clock1.png,10.0,14,1
48,272,0.8506,keyboard,keyboard,1111_cc_hum_1_keyboard9-boat2.png,10.0,14,1
48,273,1.8669,bird,bear,1111_cc_hum_1_bear6-clock1.png,10.0,14,1
48,274,3.0824,oven,oven,1111_cc_hum_1_oven7-dog2.png,10.0,14,1
48,275,1.5669,bear,bear,1111_cc_hum_1_bear2-keyboard2.png,10.0,14,1
48,276,1.1503,truck,truck,1111_cc_hum_1_truck3-bicycle1.png,10.0,14,1
48,277,0.7506,elephant,elephant,1111_cc_hum_0_elephant_40_n02504458_7013.JPEG,10.0,14,0
48,278,2.7001,car,car,1111_cc_hum_0_car_40_n04285008_9470.JPEG,10.0,14,0
48,279,5.2163,bicycle,bicycle,1111_cc_hum_0_bicycle_40_n03792782_3047.JPEG,10.0,14,0
48,280,1.3337,bird,bird,1111_cc_hum_0_bird_40_n02007558_10725.JPEG,10.0,14,0
48,281,1.1175,dog,dog,1111_cc_hum_0_dog_40_n02097130_1834.JPEG,10.0,15,0
48,282,1.0504,boat,boat,1111_cc_hum_0_boat_40_n02951358_15424.JPEG,10.0,15,0
48,283,0.8675,bear,bear,1111_cc_hum_0_bear_40_n02134084_6343.JPEG,10.0,15,0
48,284,1.7508,bottle,oven,1111_cc_hum_1_oven6-knife3.png,10.0,15,1
48,285,2.0337,elephant,cat,1111_cc_hum_1_cat10-clock1.png,10.0,15,1
48,286,1.4839,boat,boat,1111_cc_hum_1_boat2-oven3.png,10.0,15,1
48,287,2.0833,elephant,elephant,1111_cc_hum_1_elephant8-boat2.png,10.0,15,1
48,288,1.934,dog,dog,1111_cc_hum_1_dog9-car1.png,10.0,15,1
48,289,3.9833,clock,clock,1111_cc_hum_1_clock6-knife2.png,10.0,15,1
48,290,1.3503,cat,cat,1111_cc_hum_1_cat2-bottle3.png,10.0,15,1
48,291,1.2506,car,car,1111_cc_hum_1_car5-knife2.png,10.0,15,1
48,292,1.3498,clock,clock,1111_cc_hum_1_clock1-truck3.png,10.0,15,1
48,293,0.9672,bottle,bottle,1111_cc_hum_0_bottle_40_n02823428_825.JPEG,10.0,15,0
48,294,2.0334,bottle,knife,1111_cc_hum_1_knife9-bottle2.png,10.0,15,1
48,295,1.3504,knife,knife,1111_cc_hum_0_knife_40_n03041632_4808.JPEG,10.0,15,0
48,296,1.7338,airplane,airplane,1111_cc_hum_1_airplane8-truck3.png,10.0,15,1
48,297,1.1338,car,car,1111_cc_hum_1_car10-dog1.png,10.0,15,1
48,298,0.8004,truck,truck,1111_cc_hum_0_truck_40_n04467665_50932.JPEG,10.0,15,0
48,299,1.1837,airplane,airplane,1111_cc_hum_0_airplane_40_n02690373_4243.JPEG,10.0,15,0
48,300,3.3002,elephant,elephant,1111_cc_hum_0_elephant_40_n02504013_8385.JPEG,10.0,15,0
48,301,1.6002,bottle,bottle,1111_cc_hum_0_bottle_40_n04560804_13773.JPEG,10.0,16,0
48,302,1.3671,bird,bird,1111_cc_hum_0_bird_40_n01601694_13334.JPEG,10.0,16,0
48,303,0.9004,knife,knife,1111_cc_hum_0_knife_40_n03041632_105081.JPEG,10.0,16,0
48,304,0.8506,truck,truck,1111_cc_hum_1_truck1-cat1.png,10.0,16,1
48,305,4.3667,clock,oven,1111_cc_hum_1_oven5-keyboard2.png,10.0,16,1
48,306,1.1839,truck,truck,1111_cc_hum_1_truck1-bear1.png,10.0,16,1
48,307,7.8996,bird,dog,1111_cc_hum_1_dog4-bird1.png,10.0,16,1
48,308,1.4003,car,car,1111_cc_hum_1_car3-elephant3.png,10.0,16,1
48,309,1.6165,keyboard,keyboard,1111_cc_hum_1_keyboard6-bottle2.png,10.0,16,1
48,310,1.2169,knife,knife,1111_cc_hum_1_knife5-oven2.png,10.0,16,1
48,311,1.0166,dog,dog,1111_cc_hum_1_dog3-bear3.png,10.0,16,1
48,312,2.6833,cat,cat,1111_cc_hum_0_cat_40_n02123159_3330.JPEG,10.0,16,0
48,313,0.9672,chair,chair,1111_cc_hum_1_chair4-truck2.png,10.0,16,1
48,314,1.6006,bird,car,1111_cc_hum_1_car4-bear3.png,10.0,16,1
48,315,5.1,oven,clock,1111_cc_hum_0_clock_40_n03196217_6809.JPEG,10.0,16,0
48,316,0.9673,bottle,bottle,1111_cc_hum_1_bottle8-bicycle1.png,10.0,16,1
48,317,1.7004,bicycle,bicycle,1111_cc_hum_1_bicycle2-dog1.png,10.0,16,1
48,318,0.8005,chair,chair,1111_cc_hum_0_chair_40_n03376595_4309.JPEG,10.0,16,0
48,319,4.2667,dog,dog,1111_cc_hum_0_dog_40_n02112018_370.JPEG,10.0,16,0
48,320,0.6837,keyboard,keyboard,1111_cc_hum_0_keyboard_40_n03085013_1483.JPEG,10.0,16,0
48,321,1.0337,dog,dog,1111_cc_hum_0_dog_40_n02106382_14862.JPEG,10.0,17,0
48,322,1.2169,elephant,elephant,1111_cc_hum_0_elephant_40_n02504458_3140.JPEG,10.0,17,0
48,323,1.5501,bear,bear,1111_cc_hum_0_bear_40_n02134418_4886.JPEG,10.0,17,0
48,324,17.1316,cat,knife,1111_cc_hum_1_knife10-keyboard3.png,10.0,17,1
48,325,0.8505,bottle,bottle,1111_cc_hum_1_bottle3-knife3.png,10.0,17,1
48,326,1.8338,bird,boat,1111_cc_hum_1_boat4-dog2.png,10.0,17,1
48,327,1.0169,car,car,1111_cc_hum_1_car2-bird3.png,10.0,17,1
48,328,1.4168,knife,knife,1111_cc_hum_1_knife2-elephant2.png,10.0,17,1
48,329,0.7007,bear,bear,1111_cc_hum_0_bear_40_n02134418_703.JPEG,10.0,17,0
48,330,0.6995,elephant,bear,1111_cc_hum_1_bear3-chair2.png,10.0,17,1
48,331,0.6338,dog,dog,1111_cc_hum_1_dog10-keyboard2.png,10.0,17,1
48,332,0.6668,clock,clock,1111_cc_hum_1_clock3-elephant3.png,10.0,17,1
48,333,1.1338,dog,dog,1111_cc_hum_1_dog8-clock2.png,10.0,17,1
48,334,1.7997,bear,bear,1111_cc_hum_1_bear7-oven3.png,10.0,17,1
48,335,1.1169,chair,chair,1111_cc_hum_0_chair_40_n04099969_18182.JPEG,10.0,17,0
48,336,1.5,oven,oven,1111_cc_hum_1_oven6-truck1.png,10.0,17,1
48,337,1.4669,truck,truck,1111_cc_hum_1_truck2-bicycle2.png,10.0,17,1
48,338,8.9826,bird,bicycle,1111_cc_hum_0_bicycle_40_n02835271_13131.JPEG,10.0,17,0
48,339,2.9,oven,oven,1111_cc_hum_0_oven_40_n04111531_11530.JPEG,10.0,17,0
48,340,1.2169,elephant,elephant,1111_cc_hum_0_elephant_40_n02504013_19694.JPEG,10.0,17,0
48,341,2.3332,bicycle,bicycle,1111_cc_hum_0_bicycle_40_n03792782_3631.JPEG,10.0,18,0
48,342,1.3673,knife,knife,1111_cc_hum_0_knife_40_n03041632_17338.JPEG,10.0,18,0
48,343,10.8326,bird,bird,1111_cc_hum_0_bird_40_n02037110_8732.JPEG,10.0,18,0
48,344,1.6671,cat,cat,1111_cc_hum_1_cat9-bird3.png,10.0,18,1
48,345,2.2168,dog,boat,1111_cc_hum_1_boat10-cat1.png,10.0,18,1
48,346,0.8507,knife,knife,1111_cc_hum_1_knife9-bicycle1.png,10.0,18,1
48,347,1.5001,oven,oven,1111_cc_hum_1_oven3-truck1.png,10.0,18,1
48,348,1.6504,chair,chair,1111_cc_hum_1_chair8-knife2.png,10.0,18,1
48,349,0.8502,truck,truck,1111_cc_hum_1_truck3-car3.png,10.0,18,1
48,350,3.3334,oven,boat,1111_cc_hum_1_boat2-bottle2.png,10.0,18,1
48,351,0.5838,cat,cat,1111_cc_hum_1_cat1-car2.png,10.0,18,1
48,352,1.45,knife,knife,1111_cc_hum_0_knife_40_n03041632_83826.JPEG,10.0,18,0
48,353,1.2505,keyboard,keyboard,1111_cc_hum_1_keyboard8-oven1.png,10.0,18,1
48,354,1.3505,elephant,elephant,1111_cc_hum_1_elephant2-keyboard3.png,10.0,18,1
48,355,0.8505,elephant,elephant,1111_cc_hum_1_elephant2-boat1.png,10.0,18,1
48,356,0.7339,truck,truck,1111_cc_hum_1_truck3-bird2.png,10.0,18,1
48,357,6.1165,truck,airplane,1111_cc_hum_0_airplane_40_n02690373_2024.JPEG,10.0,18,0
48,358,0.7173,truck,truck,1111_cc_hum_0_truck_40_n03796401_15756.JPEG,10.0,18,0
48,359,1.0999,clock,clock,1111_cc_hum_0_clock_40_n03196217_4417.JPEG,10.0,18,0
48,360,1.1667,airplane,airplane,1111_cc_hum_0_airplane_40_n02690373_2070.JPEG,10.0,18,0
48,361,2.2168,boat,boat,1111_cc_hum_0_boat_40_n04612504_7166.JPEG,10.0,19,0
48,362,1.6501,bottle,bottle,1111_cc_hum_0_bottle_40_n04560804_9813.JPEG,10.0,19,0
48,363,0.7004,truck,truck,1111_cc_hum_0_truck_40_n04467665_11776.JPEG,10.0,19,0
48,364,2.0669,cat,cat,1111_cc_hum_1_cat1-dog1.png,10.0,19,1
48,365,1.3502,bird,airplane,1111_cc_hum_1_airplane3-elephant1.png,10.0,19,1
48,366,1.2335,bear,bear,1111_cc_hum_1_bear10-bottle1.png,10.0,19,1
48,367,2.2502,elephant,bird,1111_cc_hum_1_bird2-airplane3.png,10.0,19,1
48,368,1.8671,dog,dog,1111_cc_hum_0_dog_40_n02113624_1203.JPEG,10.0,19,0
48,369,1.4832,car,car,1111_cc_hum_1_car7-dog3.png,10.0,19,1
48,370,11.349,oven,oven,1111_cc_hum_0_oven_40_n04111531_2371.JPEG,10.0,19,0
48,371,1.2838,airplane,airplane,1111_cc_hum_1_airplane8-clock2.png,10.0,19,1
48,372,0.7169,elephant,elephant,1111_cc_hum_1_elephant8-cat1.png,10.0,19,1
48,373,0.7171,bottle,bottle,1111_cc_hum_1_bottle5-truck1.png,10.0,19,1
48,374,1.0001,chair,chair,1111_cc_hum_1_chair7-boat3.png,10.0,19,1
48,375,1.8001,keyboard,knife,1111_cc_hum_1_knife7-chair2.png,10.0,19,1
48,376,1.234,oven,oven,1111_cc_hum_1_oven9-bear2.png,10.0,19,1
48,377,3.4501,oven,oven,1111_cc_hum_1_oven7-clock2.png,10.0,19,1
48,378,2.2503,cat,cat,1111_cc_hum_0_cat_40_n02124075_8754.JPEG,10.0,19,0
48,379,0.9169,bottle,bottle,1111_cc_hum_0_bottle_40_n04591713_6238.JPEG,10.0,19,0
48,380,3.2835,bird,bird,1111_cc_hum_0_bird_40_n02025239_22501.JPEG,10.0,19,0
48,381,1.9837,car,car,1111_cc_hum_0_car_40_n02814533_18458.JPEG,10.0,20,0
48,382,1.1504,cat,cat,1111_cc_hum_0_cat_40_n02123045_9341.JPEG,10.0,20,0
48,383,0.9501,clock,clock,1111_cc_hum_0_clock_40_n02708093_3459.JPEG,10.0,20,0
48,384,1.7006,bottle,bottle,1111_cc_hum_1_bottle5-knife1.png,10.0,20,1
48,385,1.0005,bicycle,bicycle,1111_cc_hum_1_bicycle1-oven1.png,10.0,20,1
48,386,1.1171,clock,clock,1111_cc_hum_1_clock4-boat3.png,10.0,20,1
48,387,1.3672,bear,bear,1111_cc_hum_1_bear1-bicycle3.png,10.0,20,1
48,388,0.8173,bear,bear,1111_cc_hum_1_bear1-airplane3.png,10.0,20,1
48,389,0.9505,keyboard,keyboard,1111_cc_hum_0_keyboard_40_n03085013_25181.JPEG,10.0,20,0
48,390,1.6172,elephant,elephant,1111_cc_hum_1_elephant1-car3.png,10.0,20,1
48,391,1.1339,clock,clock,1111_cc_hum_1_clock2-bear2.png,10.0,20,1
48,392,4.9167,keyboard,keyboard,1111_cc_hum_1_keyboard1-airplane2.png,10.0,20,1
48,393,0.5837,keyboard,keyboard,1111_cc_hum_0_keyboard_40_n04505470_2570.JPEG,10.0,20,0
48,394,0.7003,chair,chair,1111_cc_hum_1_chair10-bottle3.png,10.0,20,1
48,395,1.4169999999999998,keyboard,keyboard,1111_cc_hum_1_keyboard9-bear2.png,10.0,20,1
48,396,0.7507,car,car,1111_cc_hum_1_car8-cat1.png,10.0,20,1
48,397,1.3834,car,car,1111_cc_hum_1_car6-chair3.png,10.0,20,1
48,398,0.7673,car,car,1111_cc_hum_0_car_40_n04285008_2789.JPEG,10.0,20,0
48,399,1.2839,boat,boat,1111_cc_hum_0_boat_40_n03344393_302.JPEG,10.0,20,0
48,400,1.6669999999999998,chair,chair,1111_cc_hum_0_chair_40_n04099969_13056.JPEG,10.0,20,0
85,1,0.5171,bicycle,bicycle,1111_cc_hum_0_bicycle_40_n03792782_52601.JPEG,12.0,3,0
85,2,0.6673,truck,truck,1111_cc_hum_0_truck_40_n03796401_4309.JPEG,12.0,3,0
85,3,0.8503,knife,knife,1111_cc_hum_0_knife_40_n03041632_24277.JPEG,12.0,3,0
85,4,0.9166,truck,truck,1111_cc_hum_1_truck2-boat3.png,12.0,3,1
85,5,0.5005,elephant,elephant,1111_cc_hum_1_elephant5-bottle2.png,12.0,3,1
85,6,0.7340000000000001,chair,chair,1111_cc_hum_1_chair9-boat2.png,12.0,3,1
85,7,0.8173,bird,bird,1111_cc_hum_1_bird1-oven1.png,12.0,3,1
85,8,0.4168,car,car,1111_cc_hum_1_car4-boat1.png,12.0,3,1
85,9,2.2502,clock,clock,1111_cc_hum_1_clock9-cat1.png,12.0,3,1
85,10,1.6003,elephant,elephant,1111_cc_hum_1_elephant2-bird1.png,12.0,3,1
85,11,0.6666,car,car,1111_cc_hum_1_car10-keyboard2.png,12.0,3,1
85,12,0.534,chair,chair,1111_cc_hum_1_chair7-truck3.png,12.0,3,1
85,13,1.8002,bottle,bottle,1111_cc_hum_1_bottle9-truck1.png,12.0,3,1
85,14,0.6503,cat,cat,1111_cc_hum_1_cat1-airplane1.png,12.0,3,1
85,15,0.7675,bear,bear,1111_cc_hum_0_bear_40_n02134084_2004.JPEG,12.0,3,0
85,16,0.7334,bicycle,bicycle,1111_cc_hum_1_bicycle1-clock3.png,12.0,3,1
85,17,5.7665,oven,oven,1111_cc_hum_0_oven_40_n04111531_1054.JPEG,12.0,3,0
85,18,0.5505,dog,dog,1111_cc_hum_0_dog_40_n02088632_2814.JPEG,12.0,3,0
85,19,0.4675,cat,cat,1111_cc_hum_0_cat_40_n02124075_9716.JPEG,12.0,3,0
85,20,1.9002,keyboard,keyboard,1111_cc_hum_0_keyboard_40_n04505470_933.JPEG,12.0,3,0
85,21,0.4671,bicycle,bicycle,1111_cc_hum_0_bicycle_40_n03792782_14216.JPEG,12.0,4,0
85,22,0.6839,airplane,airplane,1111_cc_hum_0_airplane_40_n02690373_6999.JPEG,12.0,4,0
85,23,0.5001,bird,bird,1111_cc_hum_0_bird_40_n02037110_11551.JPEG,12.0,4,0
85,24,3.0168,clock,clock,1111_cc_hum_1_clock2-knife1.png,12.0,4,1
85,25,1.3338,chair,chair,1111_cc_hum_1_chair4-oven2.png,12.0,4,1
85,26,0.4671,dog,dog,1111_cc_hum_1_dog5-bear3.png,12.0,4,1
85,27,0.6676,clock,clock,1111_cc_hum_1_clock4-airplane1.png,12.0,4,1
85,28,0.5339,truck,truck,1111_cc_hum_1_truck1-knife1.png,12.0,4,1
85,29,1.6674,clock,clock,1111_cc_hum_1_clock6-chair3.png,12.0,4,1
85,30,0.5337,truck,truck,1111_cc_hum_1_truck2-bottle3.png,12.0,4,1
85,31,13.4153,keyboard,bear,1111_cc_hum_1_bear9-keyboard3.png,12.0,4,1
85,32,2.5338,bottle,boat,1111_cc_hum_1_boat7-keyboard3.png,12.0,4,1
85,33,2.1999,knife,elephant,1111_cc_hum_1_elephant10-knife3.png,12.0,4,1
85,34,7.7162,boat,boat,1111_cc_hum_1_boat6-car1.png,12.0,4,1
85,35,0.4506,elephant,elephant,1111_cc_hum_0_elephant_40_n02504458_4954.JPEG,12.0,4,0
85,36,0.7168,chair,chair,1111_cc_hum_1_chair10-bird3.png,12.0,4,1
85,37,0.8001,bottle,bottle,1111_cc_hum_0_bottle_40_n04591713_2718.JPEG,12.0,4,0
85,38,3.8002,truck,clock,1111_cc_hum_0_clock_40_n03196217_585.JPEG,12.0,4,0
85,39,0.6505,bird,bird,1111_cc_hum_0_bird_40_n01530575_4260.JPEG,12.0,4,0
85,40,1.3836,airplane,airplane,1111_cc_hum_0_airplane_40_n02690373_6853.JPEG,12.0,4,0
85,41,1.1004,oven,oven,1111_cc_hum_0_oven_40_n04111531_23215.JPEG,12.0,1,0
85,42,0.8507,keyboard,keyboard,1111_cc_hum_0_keyboard_40_n03085013_19436.JPEG,12.0,1,0
85,43,0.5169,dog,dog,1111_cc_hum_0_dog_40_n02101388_2075.JPEG,12.0,1,0
85,44,0.8672,airplane,airplane,1111_cc_hum_1_airplane1-clock1.png,12.0,1,1
85,45,1.717,car,knife,1111_cc_hum_1_knife7-car2.png,12.0,1,1
85,46,0.6674,truck,truck,1111_cc_hum_1_truck5-car1.png,12.0,1,1
85,47,1.5833,elephant,cat,1111_cc_hum_1_cat5-elephant2.png,12.0,1,1
85,48,1.767,car,cat,1111_cc_hum_1_cat5-airplane2.png,12.0,1,1
85,49,0.584,car,car,1111_cc_hum_0_car_40_n03100240_6805.JPEG,12.0,1,0
85,50,1.0666,boat,boat,1111_cc_hum_0_boat_40_n04612504_30742.JPEG,12.0,1,0
85,51,1.0173,bear,bear,1111_cc_hum_1_bear8-elephant2.png,12.0,1,1
85,52,3.7169,cat,boat,1111_cc_hum_1_boat7-cat3.png,12.0,1,1
85,53,2.5831,chair,knife,1111_cc_hum_1_knife10-chair1.png,12.0,1,1
85,54,0.8336,keyboard,keyboard,1111_cc_hum_1_keyboard6-bicycle1.png,12.0,1,1
85,55,0.4507,bear,bear,1111_cc_hum_1_bear8-bottle1.png,12.0,1,1
85,56,0.7504,elephant,elephant,1111_cc_hum_1_elephant8-dog1.png,12.0,1,1
85,57,0.5169,car,car,1111_cc_hum_1_car10-bicycle2.png,12.0,1,1
85,58,0.8167,cat,cat,1111_cc_hum_0_cat_40_n02123045_8774.JPEG,12.0,1,0
85,59,0.7171,clock,clock,1111_cc_hum_0_clock_40_n04548280_2518.JPEG,12.0,1,0
85,60,0.6338,boat,boat,1111_cc_hum_0_boat_40_n02951358_2853.JPEG,12.0,1,0
85,61,1.867,truck,truck,1111_cc_hum_0_truck_40_n03417042_12133.JPEG,12.0,2,0
85,62,0.9003,knife,knife,1111_cc_hum_0_knife_40_n03041632_24114.JPEG,12.0,2,0
85,63,0.7671,car,car,1111_cc_hum_0_car_40_n04285008_3280.JPEG,12.0,2,0
85,64,2.2337,elephant,airplane,1111_cc_hum_1_airplane2-bear1.png,12.0,2,1
85,65,1.3005,keyboard,knife,1111_cc_hum_1_knife8-bicycle1.png,12.0,2,1
85,66,5.6832,cat,airplane,1111_cc_hum_1_airplane4-elephant1.png,12.0,2,1
85,67,0.6836,dog,dog,1111_cc_hum_1_dog1-bear1.png,12.0,2,1
85,68,0.4501,dog,dog,1111_cc_hum_1_dog6-clock1.png,12.0,2,1
85,69,0.6673,car,car,1111_cc_hum_1_car5-truck3.png,12.0,2,1
85,70,1.5672,bird,bird,1111_cc_hum_1_bird9-dog2.png,12.0,2,1
85,71,0.4841,clock,clock,1111_cc_hum_1_clock7-cat2.png,12.0,2,1
85,72,0.4006,elephant,elephant,1111_cc_hum_0_elephant_40_n02504013_1916.JPEG,12.0,2,0
85,73,1.1173,bicycle,bicycle,1111_cc_hum_1_bicycle3-bird1.png,12.0,2,1
85,74,0.4837,bear,bear,1111_cc_hum_0_bear_40_n02134084_5027.JPEG,12.0,2,0
85,75,0.6668,bicycle,bicycle,1111_cc_hum_1_bicycle4-oven3.png,12.0,2,1
85,76,3.1671,elephant,airplane,1111_cc_hum_1_airplane2-dog1.png,12.0,2,1
85,77,0.4005,car,car,1111_cc_hum_1_car8-chair1.png,12.0,2,1
85,78,0.8668,chair,chair,1111_cc_hum_0_chair_40_n03376595_2566.JPEG,12.0,2,0
85,79,0.5836,chair,chair,1111_cc_hum_0_chair_40_n03376595_4469.JPEG,12.0,2,0
85,80,3.25,oven,bottle,1111_cc_hum_0_bottle_40_n04560804_12278.JPEG,12.0,2,0
85,81,0.5836,bear,bear,1111_cc_hum_0_bear_40_n02133161_2137.JPEG,12.0,5,0
85,82,0.467,elephant,elephant,1111_cc_hum_0_elephant_40_n02504458_1848.JPEG,12.0,5,0
85,83,1.3339,cat,cat,1111_cc_hum_0_cat_40_n02123045_964.JPEG,12.0,5,0
85,84,0.9007,oven,oven,1111_cc_hum_1_oven1-boat3.png,12.0,5,1
85,85,5.4332,boat,bear,1111_cc_hum_1_bear10-knife2.png,12.0,5,1
85,86,1.067,keyboard,keyboard,1111_cc_hum_1_keyboard3-bicycle2.png,12.0,5,1
85,87,0.5837,elephant,elephant,1111_cc_hum_1_elephant8-clock2.png,12.0,5,1
85,88,0.7340000000000001,bear,bear,1111_cc_hum_1_bear10-clock1.png,12.0,5,1
85,89,0.9169,bicycle,bicycle,1111_cc_hum_0_bicycle_40_n02835271_276.JPEG,12.0,5,0
85,90,0.7761,cat,cat,1111_cc_hum_1_cat10-bird2.png,12.0,5,1
85,91,0.7338,boat,boat,1111_cc_hum_1_boat3-car3.png,12.0,5,1
85,92,0.7667,boat,boat,1111_cc_hum_0_boat_40_n02951358_4826.JPEG,12.0,5,0
85,93,2.0169,boat,airplane,1111_cc_hum_1_airplane6-chair3.png,12.0,5,1
85,94,0.5171,elephant,elephant,1111_cc_hum_1_elephant4-clock3.png,12.0,5,1
85,95,2.6003,cat,cat,1111_cc_hum_1_cat5-knife2.png,12.0,5,1
85,96,0.7005,truck,truck,1111_cc_hum_1_truck2-chair1.png,12.0,5,1
85,97,1.6166,knife,knife,1111_cc_hum_1_knife1-dog1.png,12.0,5,1
85,98,1.2503,knife,knife,1111_cc_hum_0_knife_40_n03041632_14224.JPEG,12.0,5,0
85,99,1.6836,dog,dog,1111_cc_hum_0_dog_40_n02102318_11816.JPEG,12.0,5,0
85,100,0.5336,truck,truck,1111_cc_hum_0_truck_40_n03417042_14000.JPEG,12.0,5,0
85,101,0.6339,airplane,airplane,1111_cc_hum_0_airplane_40_n02690373_8789.JPEG,12.0,6,0
85,102,0.5504,bottle,bottle,1111_cc_hum_0_bottle_40_n04591713_5754.JPEG,12.0,6,0
85,103,1.2103,bird,bird,1111_cc_hum_0_bird_40_n01843383_8077.JPEG,12.0,6,0
85,104,0.4675,bear,bear,1111_cc_hum_1_bear8-dog1.png,12.0,6,1
85,105,0.6667,bird,bird,1111_cc_hum_1_bird5-truck2.png,12.0,6,1
85,106,0.6336,chair,chair,1111_cc_hum_1_chair1-truck3.png,12.0,6,1
85,107,0.9,clock,clock,1111_cc_hum_1_clock3-cat1.png,12.0,6,1
85,108,0.5837,knife,knife,1111_cc_hum_1_knife1-elephant1.png,12.0,6,1
85,109,2.9665,bottle,cat,1111_cc_hum_1_cat5-bottle1.png,12.0,6,1
85,110,0.5336,car,car,1111_cc_hum_1_car4-bird1.png,12.0,6,1
85,111,2.5836,chair,chair,1111_cc_hum_0_chair_40_n04429376_9212.JPEG,12.0,6,0
85,112,0.5174,bottle,bottle,1111_cc_hum_1_bottle3-cat3.png,12.0,6,1
85,113,1.3335,bear,bear,1111_cc_hum_0_bear_40_n02134418_4041.JPEG,12.0,6,0
85,114,1.2337,chair,chair,1111_cc_hum_1_chair10-airplane2.png,12.0,6,1
85,115,0.8169,dog,dog,1111_cc_hum_1_dog4-oven1.png,12.0,6,1
85,116,0.8173,elephant,elephant,1111_cc_hum_1_elephant3-keyboard2.png,12.0,6,1
85,117,0.8837,bicycle,bicycle,1111_cc_hum_1_bicycle3-oven3.png,12.0,6,1
85,118,0.6005,car,car,1111_cc_hum_0_car_40_n02814533_23512.JPEG,12.0,6,0
85,119,0.9507,knife,knife,1111_cc_hum_0_knife_40_n03041632_11797.JPEG,12.0,6,0
85,120,0.5504,elephant,elephant,1111_cc_hum_0_elephant_40_n02504458_4336.JPEG,12.0,6,0
85,121,0.5668,bicycle,bicycle,1111_cc_hum_0_bicycle_40_n03792782_33855.JPEG,12.0,7,0
85,122,5.6835,dog,cat,1111_cc_hum_0_cat_40_n02123159_2684.JPEG,12.0,7,0
85,123,0.9503,keyboard,keyboard,1111_cc_hum_0_keyboard_40_n03085013_17762.JPEG,12.0,7,0
85,124,1.1006,clock,clock,1111_cc_hum_1_clock3-car2.png,12.0,7,1
85,125,0.5668,bicycle,bicycle,1111_cc_hum_1_bicycle10-boat3.png,12.0,7,1
85,126,0.934,knife,knife,1111_cc_hum_1_knife2-dog1.png,12.0,7,1
85,127,0.8334,bottle,bottle,1111_cc_hum_0_bottle_40_n03937543_2357.JPEG,12.0,7,0
85,128,0.7837,keyboard,keyboard,1111_cc_hum_1_keyboard9-airplane3.png,12.0,7,1
85,129,0.6507,dog,dog,1111_cc_hum_1_dog1-boat3.png,12.0,7,1
85,130,1.367,car,car,1111_cc_hum_1_car10-elephant2.png,12.0,7,1
85,131,4.1665,keyboard,clock,1111_cc_hum_1_clock1-bear1.png,12.0,7,1
85,132,2.2169,bottle,dog,1111_cc_hum_1_dog7-keyboard3.png,12.0,7,1
85,133,0.5668,knife,knife,1111_cc_hum_1_knife6-oven3.png,12.0,7,1
85,134,0.617,bottle,bottle,1111_cc_hum_1_bottle3-chair3.png,12.0,7,1
85,135,1.6334,dog,dog,1111_cc_hum_0_dog_40_n02099712_5781.JPEG,12.0,7,0
85,136,0.8170000000000001,car,car,1111_cc_hum_1_car9-bicycle2.png,12.0,7,1
85,137,0.6838,clock,clock,1111_cc_hum_1_clock9-airplane1.png,12.0,7,1
85,138,1.3669,boat,boat,1111_cc_hum_0_boat_40_n02951358_5718.JPEG,12.0,7,0
85,139,0.7342,bird,bird,1111_cc_hum_0_bird_40_n01537544_2772.JPEG,12.0,7,0
85,140,1.1836,oven,oven,1111_cc_hum_0_oven_40_n04111531_10011.JPEG,12.0,7,0
85,141,1.2172,keyboard,keyboard,1111_cc_hum_0_keyboard_40_n04505470_2115.JPEG,12.0,8,0
85,142,1.2338,oven,oven,1111_cc_hum_0_oven_40_n04111531_7034.JPEG,12.0,8,0
85,143,1.0005,clock,clock,1111_cc_hum_0_clock_40_n04548280_1438.JPEG,12.0,8,0
85,144,4.2003,keyboard,oven,1111_cc_hum_1_oven3-bear2.png,12.0,8,1
85,145,0.4336,car,car,1111_cc_hum_1_car2-cat3.png,12.0,8,1
85,146,0.7174,chair,chair,1111_cc_hum_0_chair_40_n04099969_2398.JPEG,12.0,8,0
85,147,0.7339,car,car,1111_cc_hum_1_car8-bicycle2.png,12.0,8,1
85,148,1.5005,truck,truck,1111_cc_hum_0_truck_40_n03417042_28078.JPEG,12.0,8,0
85,149,0.9504,dog,dog,1111_cc_hum_1_dog2-bottle2.png,12.0,8,1
85,150,1.6169,elephant,elephant,1111_cc_hum_1_elephant6-car3.png,12.0,8,1
85,151,1.3503,bird,bird,1111_cc_hum_1_bird8-elephant1.png,12.0,8,1
85,152,0.9175,bottle,chair,1111_cc_hum_1_chair8-keyboard3.png,12.0,8,1
85,153,0.917,dog,dog,1111_cc_hum_1_dog1-bird1.png,12.0,8,1
85,154,1.1338,keyboard,keyboard,1111_cc_hum_1_keyboard4-truck3.png,12.0,8,1
85,155,2.8997,chair,bottle,1111_cc_hum_1_bottle7-bear1.png,12.0,8,1
85,156,1.0839,car,car,1111_cc_hum_1_car2-knife3.png,12.0,8,1
85,157,2.8167,chair,boat,1111_cc_hum_1_boat7-bottle1.png,12.0,8,1
85,158,0.75,car,car,1111_cc_hum_0_car_40_n02814533_82925.JPEG,12.0,8,0
85,159,0.7169,airplane,airplane,1111_cc_hum_0_airplane_40_n02690373_1071.JPEG,12.0,8,0
85,160,8.883,bicycle,clock,1111_cc_hum_0_clock_40_n03196217_5252.JPEG,12.0,8,0
85,161,1.4006,bottle,bottle,1111_cc_hum_0_bottle_40_n04579145_1302.JPEG,12.0,9,0
85,162,0.934,keyboard,keyboard,1111_cc_hum_0_keyboard_40_n03085013_2122.JPEG,12.0,9,0
85,163,6.1995,bicycle,knife,1111_cc_hum_0_knife_40_n03041632_21723.JPEG,12.0,9,0
85,164,1.1338,boat,boat,1111_cc_hum_0_boat_40_n04273569_13091.JPEG,12.0,9,0
85,165,0.9503,bicycle,bicycle,1111_cc_hum_1_bicycle3-elephant2.png,12.0,9,1
85,166,0.5836,keyboard,keyboard,1111_cc_hum_1_keyboard9-truck3.png,12.0,9,1
85,167,0.6505,clock,clock,1111_cc_hum_1_clock8-airplane2.png,12.0,9,1
85,168,1.9003,clock,clock,1111_cc_hum_0_clock_40_n03196217_5478.JPEG,12.0,9,0
85,169,1.4336,cat,bird,1111_cc_hum_1_bird10-elephant2.png,12.0,9,1
85,170,0.8338,bear,bear,1111_cc_hum_1_bear9-knife2.png,12.0,9,1
85,171,1.0167,elephant,elephant,1111_cc_hum_1_elephant4-oven1.png,12.0,9,1
85,172,3.0169,bird,elephant,1111_cc_hum_1_elephant7-keyboard3.png,12.0,9,1
85,173,1.6003,chair,chair,1111_cc_hum_1_chair5-cat3.png,12.0,9,1
85,174,3.5662,bottle,keyboard,1111_cc_hum_1_keyboard4-cat2.png,12.0,9,1
85,175,1.7838,bird,bird,1111_cc_hum_1_bird6-car3.png,12.0,9,1
85,176,1.1168,airplane,airplane,1111_cc_hum_1_airplane1-chair2.png,12.0,9,1
85,177,1.1838,elephant,elephant,1111_cc_hum_1_elephant7-knife2.png,12.0,9,1
85,178,0.8005,knife,knife,1111_cc_hum_0_knife_40_n03041632_26340.JPEG,12.0,9,0
85,179,0.7338,chair,chair,1111_cc_hum_0_chair_40_n04429376_18127.JPEG,12.0,9,0
85,180,0.6167,dog,dog,1111_cc_hum_0_dog_40_n02110806_16707.JPEG,12.0,9,0
85,181,1.3006,clock,clock,1111_cc_hum_0_clock_40_n03196217_3943.JPEG,12.0,10,0
85,182,0.4666,elephant,elephant,1111_cc_hum_0_elephant_40_n02504458_4.JPEG,12.0,10,0
85,183,0.7337,oven,oven,1111_cc_hum_0_oven_40_n04111531_9712.JPEG,12.0,10,0
85,184,0.9668,boat,boat,1111_cc_hum_1_boat9-bird1.png,12.0,10,1
85,185,0.4502,clock,clock,1111_cc_hum_1_clock3-bear3.png,12.0,10,1
85,186,0.6506,boat,boat,1111_cc_hum_1_boat3-airplane2.png,12.0,10,1
85,187,3.8502,chair,airplane,1111_cc_hum_1_airplane8-bicycle3.png,12.0,10,1
85,188,1.1504,bicycle,bicycle,1111_cc_hum_1_bicycle5-car3.png,12.0,10,1
85,189,0.5336,car,car,1111_cc_hum_1_car1-airplane1.png,12.0,10,1
85,190,3.317,knife,keyboard,1111_cc_hum_1_keyboard7-knife1.png,12.0,10,1
85,191,0.5837,airplane,airplane,1111_cc_hum_0_airplane_40_n02690373_19152.JPEG,12.0,10,0
85,192,1.8006,bottle,boat,1111_cc_hum_1_boat6-dog1.png,12.0,10,1
85,193,0.667,car,car,1111_cc_hum_0_car_40_n02814533_32461.JPEG,12.0,10,0
85,194,0.7672,elephant,elephant,1111_cc_hum_1_elephant1-boat2.png,12.0,10,1
85,195,1.0501,dog,dog,1111_cc_hum_1_dog9-bottle1.png,12.0,10,1
85,196,1.6001,cat,cat,1111_cc_hum_1_cat5-dog3.png,12.0,10,1
85,197,2.6006,knife,boat,1111_cc_hum_1_boat2-bird1.png,12.0,10,1
85,198,1.3003,chair,chair,1111_cc_hum_0_chair_40_n04429376_19101.JPEG,12.0,10,0
85,199,3.0336,elephant,bear,1111_cc_hum_0_bear_40_n02134418_4895.JPEG,12.0,10,0
85,200,0.7501,cat,cat,1111_cc_hum_0_cat_40_n02124075_8351.JPEG,12.0,10,0
85,201,0.6169,truck,truck,1111_cc_hum_0_truck_40_n03417042_19905.JPEG,12.0,11,0
85,202,0.8175,bicycle,bicycle,1111_cc_hum_0_bicycle_40_n03792782_692.JPEG,12.0,11,0
85,203,0.8669,bicycle,bicycle,1111_cc_hum_0_bicycle_40_n03792782_3467.JPEG,12.0,11,0
85,204,0.8006,clock,clock,1111_cc_hum_1_clock1-boat3.png,12.0,11,1
85,205,0.5501,elephant,elephant,1111_cc_hum_0_elephant_40_n02504013_6660.JPEG,12.0,11,0
85,206,1.1172,chair,chair,1111_cc_hum_1_chair5-bird1.png,12.0,11,1
85,207,1.1004,car,cat,1111_cc_hum_1_cat5-chair3.png,12.0,11,1
85,208,0.7338,bicycle,bicycle,1111_cc_hum_1_bicycle9-chair1.png,12.0,11,1
85,209,0.9169,truck,truck,1111_cc_hum_1_truck10-bicycle1.png,12.0,11,1
85,210,1.4507,elephant,elephant,1111_cc_hum_1_elephant1-bottle1.png,12.0,11,1
85,211,1.2007,boat,boat,1111_cc_hum_1_boat3-clock3.png,12.0,11,1
85,212,1.2506,cat,cat,1111_cc_hum_0_cat_40_n02124075_14094.JPEG,12.0,11,0
85,213,0.9001,airplane,airplane,1111_cc_hum_1_airplane5-bicycle1.png,12.0,11,1
85,214,4.6167,oven,oven,1111_cc_hum_1_oven2-truck3.png,12.0,11,1
85,215,0.9668,knife,knife,1111_cc_hum_1_knife6-boat3.png,12.0,11,1
85,216,0.8501,bottle,bottle,1111_cc_hum_1_bottle9-keyboard1.png,12.0,11,1
85,217,1.3839,airplane,bird,1111_cc_hum_1_bird8-keyboard2.png,12.0,11,1
85,218,0.4838,oven,oven,1111_cc_hum_0_oven_40_n04111531_9490.JPEG,12.0,11,0
85,219,1.8669,truck,truck,1111_cc_hum_0_truck_40_n03417042_16389.JPEG,12.0,11,0
85,220,1.2503,boat,boat,1111_cc_hum_0_boat_40_n04612504_8942.JPEG,12.0,11,0
85,221,0.6508,airplane,airplane,1111_cc_hum_0_airplane_40_n02690373_4728.JPEG,12.0,12,0
85,222,0.7672,car,car,1111_cc_hum_0_car_40_n03100240_6954.JPEG,12.0,12,0
85,223,0.5504,bear,bear,1111_cc_hum_0_bear_40_n02132136_6787.JPEG,12.0,12,0
85,224,0.8671,bottle,keyboard,1111_cc_hum_1_keyboard10-oven3.png,12.0,12,1
85,225,0.6505,elephant,elephant,1111_cc_hum_1_elephant3-cat2.png,12.0,12,1
85,226,1.167,elephant,elephant,1111_cc_hum_1_elephant2-bottle3.png,12.0,12,1
85,227,1.0837,bicycle,bicycle,1111_cc_hum_1_bicycle4-truck3.png,12.0,12,1
85,228,1.1677,bicycle,bicycle,1111_cc_hum_1_bicycle7-clock3.png,12.0,12,1
85,229,0.8337,knife,knife,1111_cc_hum_1_knife2-car3.png,12.0,12,1
85,230,0.8669,bird,bird,1111_cc_hum_1_bird9-bear3.png,12.0,12,1
85,231,4.2997,boat,cat,1111_cc_hum_1_cat10-elephant3.png,12.0,12,1
85,232,1.8336,bottle,bottle,1111_cc_hum_0_bottle_40_n04560804_32398.JPEG,12.0,12,0
85,233,1.1334,bird,bird,1111_cc_hum_1_bird10-clock1.png,12.0,12,1
85,234,1.6667,oven,keyboard,1111_cc_hum_0_keyboard_40_n04505470_1430.JPEG,12.0,12,0
85,235,0.7006,bicycle,bicycle,1111_cc_hum_1_bicycle1-dog3.png,12.0,12,1
85,236,0.9338,bear,bear,1111_cc_hum_1_bear4-oven2.png,12.0,12,1
85,237,0.6837,knife,knife,1111_cc_hum_1_knife2-bear2.png,12.0,12,1
85,238,0.9174,dog,dog,1111_cc_hum_0_dog_40_n02108000_324.JPEG,12.0,12,0
85,239,0.9172,bird,bird,1111_cc_hum_0_bird_40_n02033041_6633.JPEG,12.0,12,0
85,240,0.7505,bird,bird,1111_cc_hum_0_bird_40_n01532829_22520.JPEG,12.0,12,0
85,241,0.6337,truck,truck,1111_cc_hum_0_truck_40_n03417042_10043.JPEG,12.0,13,0
85,242,1.1002,oven,oven,1111_cc_hum_0_oven_40_n04111531_9844.JPEG,12.0,13,0
85,243,0.5505,bear,bear,1111_cc_hum_0_bear_40_n02132136_1934.JPEG,12.0,13,0
85,244,0.3837,chair,chair,1111_cc_hum_1_chair9-bird3.png,12.0,13,1
85,245,0.4505,truck,truck,1111_cc_hum_1_truck2-car3.png,12.0,13,1
85,246,0.5006,chair,chair,1111_cc_hum_1_chair1-cat3.png,12.0,13,1
85,247,0.7668,elephant,elephant,1111_cc_hum_1_elephant9-boat3.png,12.0,13,1
85,248,1.0005,bird,bird,1111_cc_hum_1_bird6-airplane2.png,12.0,13,1
85,249,1.1169,clock,clock,1111_cc_hum_1_clock9-chair3.png,12.0,13,1
85,250,1.1005,cat,cat,1111_cc_hum_0_cat_40_n02123394_2364.JPEG,12.0,13,0
85,251,0.8173,bird,bird,1111_cc_hum_1_bird1-elephant2.png,12.0,13,1
85,252,0.6002,dog,dog,1111_cc_hum_1_dog4-chair1.png,12.0,13,1
85,253,0.7337,chair,chair,1111_cc_hum_0_chair_40_n04099969_2267.JPEG,12.0,13,0
85,254,1.7504,clock,clock,1111_cc_hum_1_clock6-bird3.png,12.0,13,1
85,255,0.9334,truck,truck,1111_cc_hum_1_truck8-elephant1.png,12.0,13,1
85,256,1.1504,elephant,elephant,1111_cc_hum_1_elephant9-bicycle2.png,12.0,13,1
85,257,2.0337,truck,car,1111_cc_hum_1_car1-chair3.png,12.0,13,1
85,258,1.5335,airplane,airplane,1111_cc_hum_0_airplane_40_n02690373_3874.JPEG,12.0,13,0
85,259,2.0168,oven,oven,1111_cc_hum_0_oven_40_n04111531_14611.JPEG,12.0,13,0
85,260,4.6666,clock,clock,1111_cc_hum_0_clock_40_n04548280_7490.JPEG,12.0,13,0
85,261,0.6672,boat,boat,1111_cc_hum_0_boat_40_n02951358_34441.JPEG,12.0,14,0
85,262,0.3338,car,car,1111_cc_hum_0_car_40_n03100240_418.JPEG,12.0,14,0
85,263,0.7673,keyboard,keyboard,1111_cc_hum_0_keyboard_40_n03085013_4160.JPEG,12.0,14,0
85,264,0.8838,truck,truck,1111_cc_hum_1_truck2-airplane3.png,12.0,14,1
85,265,1.8004,bird,bear,1111_cc_hum_1_bear6-clock1.png,12.0,14,1
85,266,0.4842,keyboard,keyboard,1111_cc_hum_1_keyboard1-clock1.png,12.0,14,1
85,267,0.767,truck,truck,1111_cc_hum_1_truck3-bicycle1.png,12.0,14,1
85,268,1.2339,car,cat,1111_cc_hum_1_cat3-oven2.png,12.0,14,1
85,269,0.8175,boat,boat,1111_cc_hum_1_boat5-car3.png,12.0,14,1
85,270,1.8669,bird,bird,1111_cc_hum_0_bird_40_n02007558_10725.JPEG,12.0,14,0
85,271,5.5999,clock,bear,1111_cc_hum_1_bear2-keyboard2.png,12.0,14,1
85,272,2.9837,knife,airplane,1111_cc_hum_1_airplane9-keyboard2.png,12.0,14,1
85,273,0.6834,elephant,elephant,1111_cc_hum_1_elephant9-airplane2.png,12.0,14,1
85,274,0.5334,bicycle,bicycle,1111_cc_hum_0_bicycle_40_n03792782_3047.JPEG,12.0,14,0
85,275,0.5172,keyboard,keyboard,1111_cc_hum_1_keyboard9-boat2.png,12.0,14,1
85,276,0.617,bottle,bottle,1111_cc_hum_1_bottle1-cat3.png,12.0,14,1
85,277,2.9669,oven,oven,1111_cc_hum_1_oven7-dog2.png,12.0,14,1
85,278,1.9665,bicycle,bicycle,1111_cc_hum_0_bicycle_40_n03792782_17337.JPEG,12.0,14,0
85,279,4.1002,boat,elephant,1111_cc_hum_0_elephant_40_n02504458_7013.JPEG,12.0,14,0
85,280,0.867,car,car,1111_cc_hum_0_car_40_n04285008_9470.JPEG,12.0,14,0
85,281,0.434,bear,bear,1111_cc_hum_0_bear_40_n02134084_6343.JPEG,12.0,15,0
85,282,3.1168,keyboard,knife,1111_cc_hum_0_knife_40_n03041632_4808.JPEG,12.0,15,0
85,283,0.6841,boat,boat,1111_cc_hum_0_boat_40_n02951358_15424.JPEG,12.0,15,0
85,284,0.6835,bottle,knife,1111_cc_hum_1_knife9-bottle2.png,12.0,15,1
85,285,1.6004,dog,dog,1111_cc_hum_0_dog_40_n02097130_1834.JPEG,12.0,15,0
85,286,2.2499,dog,cat,1111_cc_hum_1_cat10-clock1.png,12.0,15,1
85,287,1.6337,car,car,1111_cc_hum_1_car10-dog1.png,12.0,15,1
85,288,3.3003,clock,dog,1111_cc_hum_1_dog9-car1.png,12.0,15,1
85,289,0.4506,truck,car,1111_cc_hum_1_car5-knife2.png,12.0,15,1
85,290,1.1337,oven,oven,1111_cc_hum_1_oven6-knife3.png,12.0,15,1
85,291,1.6501,bottle,bottle,1111_cc_hum_0_bottle_40_n02823428_825.JPEG,12.0,15,0
85,292,1.6837,clock,clock,1111_cc_hum_1_clock1-truck3.png,12.0,15,1
85,293,1.5339,cat,cat,1111_cc_hum_1_cat2-bottle3.png,12.0,15,1
85,294,1.0337,elephant,elephant,1111_cc_hum_1_elephant8-boat2.png,12.0,15,1
85,295,0.6502,clock,clock,1111_cc_hum_1_clock6-knife2.png,12.0,15,1
85,296,0.9336,knife,airplane,1111_cc_hum_1_airplane8-truck3.png,12.0,15,1
85,297,0.9339,boat,boat,1111_cc_hum_1_boat2-oven3.png,12.0,15,1
85,298,1.8336,truck,truck,1111_cc_hum_0_truck_40_n04467665_50932.JPEG,12.0,15,0
85,299,0.6505,elephant,elephant,1111_cc_hum_0_elephant_40_n02504013_8385.JPEG,12.0,15,0
85,300,0.5006,airplane,airplane,1111_cc_hum_0_airplane_40_n02690373_4243.JPEG,12.0,15,0
85,301,0.8502,clock,clock,1111_cc_hum_0_clock_40_n03196217_6809.JPEG,12.0,16,0
85,302,1.2339,cat,dog,1111_cc_hum_0_dog_40_n02112018_370.JPEG,12.0,16,0
85,303,1.3001,bird,bird,1111_cc_hum_0_bird_40_n01601694_13334.JPEG,12.0,16,0
85,304,2.2832,chair,chair,1111_cc_hum_0_chair_40_n03376595_4309.JPEG,12.0,16,0
85,305,0.4673,chair,chair,1111_cc_hum_1_chair4-truck2.png,12.0,16,1
85,306,0.5838,truck,truck,1111_cc_hum_1_truck1-cat1.png,12.0,16,1
85,307,0.6669,keyboard,keyboard,1111_cc_hum_1_keyboard6-bottle2.png,12.0,16,1
85,308,1.7003,cat,dog,1111_cc_hum_1_dog3-bear3.png,12.0,16,1
85,309,1.4838,car,car,1111_cc_hum_1_car3-elephant3.png,12.0,16,1
85,310,1.7503,oven,oven,1111_cc_hum_1_oven5-keyboard2.png,12.0,16,1
85,311,0.8168,cat,dog,1111_cc_hum_1_dog4-bird1.png,12.0,16,1
85,312,2.3834,bottle,bottle,1111_cc_hum_1_bottle8-bicycle1.png,12.0,16,1
85,313,3.0502,airplane,knife,1111_cc_hum_1_knife5-oven2.png,12.0,16,1
85,314,0.7506,bicycle,bicycle,1111_cc_hum_1_bicycle2-dog1.png,12.0,16,1
85,315,1.2003,car,car,1111_cc_hum_1_car4-bear3.png,12.0,16,1
85,316,2.7671,bottle,bottle,1111_cc_hum_0_bottle_40_n04560804_13773.JPEG,12.0,16,0
85,317,1.3837,truck,truck,1111_cc_hum_1_truck1-bear1.png,12.0,16,1
85,318,0.6504,keyboard,keyboard,1111_cc_hum_0_keyboard_40_n03085013_1483.JPEG,12.0,16,0
85,319,0.9836,cat,cat,1111_cc_hum_0_cat_40_n02123159_3330.JPEG,12.0,16,0
85,320,0.3839,knife,knife,1111_cc_hum_0_knife_40_n03041632_105081.JPEG,12.0,16,0
85,321,0.6506,bear,dog,1111_cc_hum_0_dog_40_n02106382_14862.JPEG,12.0,17,0
85,322,1.3668,oven,oven,1111_cc_hum_0_oven_40_n04111531_11530.JPEG,12.0,17,0
85,323,0.9005,chair,chair,1111_cc_hum_0_chair_40_n04099969_18182.JPEG,12.0,17,0
85,324,1.1838,elephant,dog,1111_cc_hum_1_dog8-clock2.png,12.0,17,1
85,325,1.1505,elephant,bear,1111_cc_hum_1_bear7-oven3.png,12.0,17,1
85,326,1.1169,knife,boat,1111_cc_hum_1_boat4-dog2.png,12.0,17,1
85,327,0.6673,knife,knife,1111_cc_hum_1_knife2-elephant2.png,12.0,17,1
85,328,0.6007,elephant,elephant,1111_cc_hum_0_elephant_40_n02504013_19694.JPEG,12.0,17,0
85,329,1.0337,elephant,bear,1111_cc_hum_1_bear3-chair2.png,12.0,17,1
85,330,0.7499,knife,knife,1111_cc_hum_1_knife10-keyboard3.png,12.0,17,1
85,331,0.5342,bear,bear,1111_cc_hum_0_bear_40_n02134418_4886.JPEG,12.0,17,0
85,332,0.7669,car,car,1111_cc_hum_1_car2-bird3.png,12.0,17,1
85,333,0.6507,bottle,bottle,1111_cc_hum_1_bottle3-knife3.png,12.0,17,1
85,334,0.4337,clock,clock,1111_cc_hum_1_clock3-elephant3.png,12.0,17,1
85,335,0.6674,dog,dog,1111_cc_hum_1_dog10-keyboard2.png,12.0,17,1
85,336,1.2505,oven,oven,1111_cc_hum_1_oven6-truck1.png,12.0,17,1
85,337,0.8669,truck,truck,1111_cc_hum_1_truck2-bicycle2.png,12.0,17,1
85,338,0.6176,elephant,elephant,1111_cc_hum_0_elephant_40_n02504458_3140.JPEG,12.0,17,0
85,339,4.0167,bear,bear,1111_cc_hum_0_bear_40_n02134418_703.JPEG,12.0,17,0
85,340,0.8176,bicycle,bicycle,1111_cc_hum_0_bicycle_40_n02835271_13131.JPEG,12.0,17,0
85,341,0.8007,knife,knife,1111_cc_hum_0_knife_40_n03041632_83826.JPEG,12.0,18,0
85,342,0.634,knife,knife,1111_cc_hum_0_knife_40_n03041632_17338.JPEG,12.0,18,0
85,343,0.6174,bicycle,bicycle,1111_cc_hum_0_bicycle_40_n03792782_3631.JPEG,12.0,18,0
85,344,2.3502,airplane,airplane,1111_cc_hum_0_airplane_40_n02690373_2070.JPEG,12.0,18,0
85,345,1.717,cat,boat,1111_cc_hum_1_boat10-cat1.png,12.0,18,1
85,346,0.667,chair,chair,1111_cc_hum_1_chair8-knife2.png,12.0,18,1
85,347,0.5005,truck,truck,1111_cc_hum_1_truck3-car3.png,12.0,18,1
85,348,1.0841,elephant,elephant,1111_cc_hum_1_elephant2-boat1.png,12.0,18,1
85,349,1.5672,bottle,boat,1111_cc_hum_1_boat2-bottle2.png,12.0,18,1
85,350,0.7506,keyboard,keyboard,1111_cc_hum_1_keyboard8-oven1.png,12.0,18,1
85,351,0.9338,knife,knife,1111_cc_hum_1_knife9-bicycle1.png,12.0,18,1
85,352,1.0669,truck,truck,1111_cc_hum_1_truck3-bird2.png,12.0,18,1
85,353,0.8668,bird,bird,1111_cc_hum_0_bird_40_n02037110_8732.JPEG,12.0,18,0
85,354,0.767,cat,cat,1111_cc_hum_1_cat9-bird3.png,12.0,18,1
85,355,0.7837,cat,cat,1111_cc_hum_1_cat1-car2.png,12.0,18,1
85,356,1.7999,oven,oven,1111_cc_hum_1_oven3-truck1.png,12.0,18,1
85,357,0.6674,elephant,elephant,1111_cc_hum_1_elephant2-keyboard3.png,12.0,18,1
85,358,1.6669,airplane,airplane,1111_cc_hum_0_airplane_40_n02690373_2024.JPEG,12.0,18,0
85,359,0.6505,clock,clock,1111_cc_hum_0_clock_40_n03196217_4417.JPEG,12.0,18,0
85,360,1.2506,truck,truck,1111_cc_hum_0_truck_40_n03796401_15756.JPEG,12.0,18,0
85,361,0.6171,dog,dog,1111_cc_hum_0_dog_40_n02113624_1203.JPEG,12.0,19,0
85,362,0.8337,bird,bird,1111_cc_hum_0_bird_40_n02025239_22501.JPEG,12.0,19,0
85,363,1.1505,bottle,bottle,1111_cc_hum_0_bottle_40_n04560804_9813.JPEG,12.0,19,0
85,364,0.8673,bottle,bottle,1111_cc_hum_0_bottle_40_n04591713_6238.JPEG,12.0,19,0
85,365,0.7334,chair,chair,1111_cc_hum_1_chair7-boat3.png,12.0,19,1
85,366,0.3672,cat,cat,1111_cc_hum_1_cat1-dog1.png,12.0,19,1
85,367,0.8337,cat,cat,1111_cc_hum_0_cat_40_n02124075_8754.JPEG,12.0,19,0
85,368,0.8174,bottle,bottle,1111_cc_hum_1_bottle5-truck1.png,12.0,19,1
85,369,1.367,oven,oven,1111_cc_hum_1_oven9-bear2.png,12.0,19,1
85,370,1.5338,bear,bear,1111_cc_hum_1_bear10-bottle1.png,12.0,19,1
85,371,0.9171,car,car,1111_cc_hum_1_car7-dog3.png,12.0,19,1
85,372,4.017,knife,airplane,1111_cc_hum_1_airplane3-elephant1.png,12.0,19,1
85,373,1.8505,oven,oven,1111_cc_hum_1_oven7-clock2.png,12.0,19,1
85,374,0.5336,elephant,elephant,1111_cc_hum_1_elephant8-cat1.png,12.0,19,1
85,375,1.1338,knife,knife,1111_cc_hum_1_knife7-chair2.png,12.0,19,1
85,376,1.3841,bottle,bird,1111_cc_hum_1_bird2-airplane3.png,12.0,19,1
85,377,1.6669999999999998,boat,airplane,1111_cc_hum_1_airplane8-clock2.png,12.0,19,1
85,378,2.7337,oven,oven,1111_cc_hum_0_oven_40_n04111531_2371.JPEG,12.0,19,0
85,379,1.0004,boat,boat,1111_cc_hum_0_boat_40_n04612504_7166.JPEG,12.0,19,0
85,380,0.6006,truck,truck,1111_cc_hum_0_truck_40_n04467665_11776.JPEG,12.0,19,0
85,381,0.5668,car,car,1111_cc_hum_0_car_40_n04285008_2789.JPEG,12.0,20,0
85,382,1.5337,keyboard,keyboard,1111_cc_hum_0_keyboard_40_n04505470_2570.JPEG,12.0,20,0
85,383,0.7005,cat,cat,1111_cc_hum_0_cat_40_n02123045_9341.JPEG,12.0,20,0
85,384,0.8339,clock,clock,1111_cc_hum_1_clock4-boat3.png,12.0,20,1
85,385,0.9005,keyboard,keyboard,1111_cc_hum_1_keyboard9-bear2.png,12.0,20,1
85,386,0.6005,elephant,elephant,1111_cc_hum_1_elephant1-car3.png,12.0,20,1
85,387,0.7505,keyboard,keyboard,1111_cc_hum_1_keyboard1-airplane2.png,12.0,20,1
85,388,0.6339,bear,bear,1111_cc_hum_1_bear1-bicycle3.png,12.0,20,1
85,389,0.4669,car,car,1111_cc_hum_0_car_40_n02814533_18458.JPEG,12.0,20,0
85,390,0.3672,car,car,1111_cc_hum_1_car6-chair3.png,12.0,20,1
85,391,1.4169,chair,chair,1111_cc_hum_1_chair10-bottle3.png,12.0,20,1
85,392,0.6668,bicycle,bicycle,1111_cc_hum_1_bicycle1-oven1.png,12.0,20,1
85,393,0.4336,car,car,1111_cc_hum_1_car8-cat1.png,12.0,20,1
85,394,0.8507,chair,chair,1111_cc_hum_0_chair_40_n04099969_13056.JPEG,12.0,20,0
85,395,0.8672,bottle,bottle,1111_cc_hum_1_bottle5-knife1.png,12.0,20,1
85,396,0.4835,clock,clock,1111_cc_hum_1_clock2-bear2.png,12.0,20,1
85,397,0.7504,bear,bear,1111_cc_hum_1_bear1-airplane3.png,12.0,20,1
85,398,0.867,boat,boat,1111_cc_hum_0_boat_40_n03344393_302.JPEG,12.0,20,0
85,399,0.6836,clock,clock,1111_cc_hum_0_clock_40_n02708093_3459.JPEG,12.0,20,0
85,400,0.5670000000000001,keyboard,keyboard,1111_cc_hum_0_keyboard_40_n03085013_25181.JPEG,12.0,20,0
100,1,1.1004,bear,bear,1111_cc_hum_0_bear_40_n02134084_2004.JPEG,12.0,3,0
100,2,0.6337,keyboard,keyboard,1111_cc_hum_0_keyboard_40_n04505470_933.JPEG,12.0,3,0
100,3,0.6672,bicycle,bicycle,1111_cc_hum_0_bicycle_40_n03792782_52601.JPEG,12.0,3,0
100,4,1.6333,bottle,bottle,1111_cc_hum_1_bottle9-truck1.png,12.0,3,1
100,5,2.9502,oven,clock,1111_cc_hum_1_clock9-cat1.png,12.0,3,1
100,6,13.6982,cat,elephant,1111_cc_hum_1_elephant2-bird1.png,12.0,3,1
100,7,0.6338,truck,truck,1111_cc_hum_1_truck2-boat3.png,12.0,3,1
100,8,1.767,oven,oven,1111_cc_hum_0_oven_40_n04111531_1054.JPEG,12.0,3,0
100,9,0.8673,car,car,1111_cc_hum_1_car10-keyboard2.png,12.0,3,1
100,10,0.7338,chair,chair,1111_cc_hum_1_chair7-truck3.png,12.0,3,1
100,11,0.4339,cat,cat,1111_cc_hum_0_cat_40_n02124075_9716.JPEG,12.0,3,0
100,12,0.317,bicycle,bicycle,1111_cc_hum_1_bicycle1-clock3.png,12.0,3,1
100,13,0.3337,elephant,elephant,1111_cc_hum_1_elephant5-bottle2.png,12.0,3,1
100,14,0.2674,cat,cat,1111_cc_hum_1_cat1-airplane1.png,12.0,3,1
100,15,0.6837,chair,chair,1111_cc_hum_1_chair9-boat2.png,12.0,3,1
100,16,0.4669,car,car,1111_cc_hum_1_car4-boat1.png,12.0,3,1
100,17,0.4007,bird,bird,1111_cc_hum_1_bird1-oven1.png,12.0,3,1
100,18,0.3505,truck,truck,1111_cc_hum_0_truck_40_n03796401_4309.JPEG,12.0,3,0
100,19,0.6005,knife,knife,1111_cc_hum_0_knife_40_n03041632_24277.JPEG,12.0,3,0
100,20,0.3335,dog,dog,1111_cc_hum_0_dog_40_n02088632_2814.JPEG,12.0,3,0
100,21,0.2671,airplane,airplane,1111_cc_hum_0_airplane_40_n02690373_6999.JPEG,12.0,4,0
100,22,0.9507,bicycle,bicycle,1111_cc_hum_0_bicycle_40_n03792782_14216.JPEG,12.0,4,0
100,23,0.2672,airplane,airplane,1111_cc_hum_0_airplane_40_n02690373_6853.JPEG,12.0,4,0
100,24,0.6667,truck,truck,1111_cc_hum_1_truck2-bottle3.png,12.0,4,1
100,25,0.8504,dog,bear,1111_cc_hum_1_bear9-keyboard3.png,12.0,4,1
100,26,0.4506,chair,chair,1111_cc_hum_1_chair10-bird3.png,12.0,4,1
100,27,1.7334,bicycle,clock,1111_cc_hum_1_clock6-chair3.png,12.0,4,1
100,28,0.4836,clock,clock,1111_cc_hum_1_clock4-airplane1.png,12.0,4,1
100,29,0.4009,truck,truck,1111_cc_hum_1_truck1-knife1.png,12.0,4,1
100,30,0.6338,clock,clock,1111_cc_hum_1_clock2-knife1.png,12.0,4,1
100,31,0.4674,dog,dog,1111_cc_hum_1_dog5-bear3.png,12.0,4,1
100,32,0.9169,bottle,bottle,1111_cc_hum_0_bottle_40_n04591713_2718.JPEG,12.0,4,0
100,33,43.2776,dog,boat,1111_cc_hum_1_boat7-keyboard3.png,12.0,4,1
100,34,5.0665,bicycle,elephant,1111_cc_hum_1_elephant10-knife3.png,12.0,4,1
100,35,6.2496,bird,boat,1111_cc_hum_1_boat6-car1.png,12.0,4,1
100,36,0.4837,chair,chair,1111_cc_hum_1_chair4-oven2.png,12.0,4,1
100,37,0.4837,bird,bird,1111_cc_hum_0_bird_40_n01530575_4260.JPEG,12.0,4,0
100,38,0.8170000000000001,clock,clock,1111_cc_hum_0_clock_40_n03196217_585.JPEG,12.0,4,0
100,39,0.3502,elephant,elephant,1111_cc_hum_0_elephant_40_n02504458_4954.JPEG,12.0,4,0
100,40,0.3005,bird,bird,1111_cc_hum_0_bird_40_n02037110_11551.JPEG,12.0,4,0
100,41,0.1669,cat,cat,1111_cc_hum_0_cat_40_n02123045_8774.JPEG,12.0,1,0
100,42,0.6672,clock,clock,1111_cc_hum_0_clock_40_n04548280_2518.JPEG,12.0,1,0
100,43,0.5505,keyboard,keyboard,1111_cc_hum_0_keyboard_40_n03085013_19436.JPEG,12.0,1,0
100,44,24.2141,bicycle,knife,1111_cc_hum_1_knife7-car2.png,12.0,1,1
100,45,0.484,truck,truck,1111_cc_hum_1_truck5-car1.png,12.0,1,1
100,46,0.9335,boat,boat,1111_cc_hum_0_boat_40_n04612504_30742.JPEG,12.0,1,0
100,47,1.3001,chair,knife,1111_cc_hum_1_knife10-chair1.png,12.0,1,1
100,48,1.0002,oven,oven,1111_cc_hum_0_oven_40_n04111531_23215.JPEG,12.0,1,0
100,49,0.5503,keyboard,keyboard,1111_cc_hum_1_keyboard6-bicycle1.png,12.0,1,1
100,50,0.4337,bear,bear,1111_cc_hum_1_bear8-bottle1.png,12.0,1,1
100,51,0.5505,car,car,1111_cc_hum_1_car10-bicycle2.png,12.0,1,1
100,52,2.2001,car,cat,1111_cc_hum_1_cat5-airplane2.png,12.0,1,1
100,53,0.9836,bear,elephant,1111_cc_hum_1_elephant8-dog1.png,12.0,1,1
100,54,23.3808,dog,boat,1111_cc_hum_1_boat7-cat3.png,12.0,1,1
100,55,19.7436,cat,cat,1111_cc_hum_1_cat5-elephant2.png,12.0,1,1
100,56,1.167,bear,bear,1111_cc_hum_1_bear8-elephant2.png,12.0,1,1
100,57,0.4336,airplane,airplane,1111_cc_hum_1_airplane1-clock1.png,12.0,1,1
100,58,0.4169,car,car,1111_cc_hum_0_car_40_n03100240_6805.JPEG,12.0,1,0
100,59,0.9166,boat,boat,1111_cc_hum_0_boat_40_n02951358_2853.JPEG,12.0,1,0
100,60,0.5006,dog,dog,1111_cc_hum_0_dog_40_n02101388_2075.JPEG,12.0,1,0
100,61,2.3506,knife,knife,1111_cc_hum_0_knife_40_n03041632_24114.JPEG,12.0,2,0
100,62,0.5503,chair,chair,1111_cc_hum_0_chair_40_n03376595_2566.JPEG,12.0,2,0
100,63,0.3337,car,car,1111_cc_hum_0_car_40_n04285008_3280.JPEG,12.0,2,0
100,64,0.5837,dog,dog,1111_cc_hum_1_dog6-clock1.png,12.0,2,1
100,65,1.5006,keyboard,knife,1111_cc_hum_1_knife8-bicycle1.png,12.0,2,1
100,66,0.4006,dog,dog,1111_cc_hum_1_dog1-bear1.png,12.0,2,1
100,67,8.6162,dog,airplane,1111_cc_hum_1_airplane2-bear1.png,12.0,2,1
100,68,0.4336,bicycle,bicycle,1111_cc_hum_1_bicycle4-oven3.png,12.0,2,1
100,69,0.334,bird,bird,1111_cc_hum_1_bird9-dog2.png,12.0,2,1
100,70,7.3828,cat,airplane,1111_cc_hum_1_airplane2-dog1.png,12.0,2,1
100,71,13.0319,oven,bottle,1111_cc_hum_0_bottle_40_n04560804_12278.JPEG,12.0,2,0
100,72,0.4175,bear,bear,1111_cc_hum_0_bear_40_n02134084_5027.JPEG,12.0,2,0
100,73,0.4505,bicycle,bicycle,1111_cc_hum_1_bicycle3-bird1.png,12.0,2,1
100,74,2.6165,elephant,airplane,1111_cc_hum_1_airplane4-elephant1.png,12.0,2,1
100,75,0.2175,car,car,1111_cc_hum_1_car5-truck3.png,12.0,2,1
100,76,0.5167,car,car,1111_cc_hum_1_car8-chair1.png,12.0,2,1
100,77,0.4005,clock,clock,1111_cc_hum_1_clock7-cat2.png,12.0,2,1
100,78,0.3338,chair,chair,1111_cc_hum_0_chair_40_n03376595_4469.JPEG,12.0,2,0
100,79,0.2505,elephant,elephant,1111_cc_hum_0_elephant_40_n02504013_1916.JPEG,12.0,2,0
100,80,1.2338,truck,truck,1111_cc_hum_0_truck_40_n03417042_12133.JPEG,12.0,2,0
100,81,0.3029,cat,cat,1111_cc_hum_0_cat_40_n02123045_964.JPEG,12.0,5,0
100,82,1.6504,knife,knife,1111_cc_hum_0_knife_40_n03041632_14224.JPEG,12.0,5,0
100,83,0.4004,boat,boat,1111_cc_hum_0_boat_40_n02951358_4826.JPEG,12.0,5,0
100,84,2.0169,keyboard,keyboard,1111_cc_hum_1_keyboard3-bicycle2.png,12.0,5,1
100,85,8.3327,bear,bear,1111_cc_hum_1_bear10-knife2.png,12.0,5,1
100,86,0.6175,bear,bear,1111_cc_hum_1_bear10-clock1.png,12.0,5,1
100,87,0.4006,bear,bear,1111_cc_hum_0_bear_40_n02133161_2137.JPEG,12.0,5,0
100,88,21.5804,bottle,airplane,1111_cc_hum_1_airplane6-chair3.png,12.0,5,1
100,89,1.3837,cat,cat,1111_cc_hum_1_cat10-bird2.png,12.0,5,1
100,90,0.7838,truck,truck,1111_cc_hum_0_truck_40_n03417042_14000.JPEG,12.0,5,0
100,91,0.4506,cat,cat,1111_cc_hum_1_cat5-knife2.png,12.0,5,1
100,92,4.2668,keyboard,boat,1111_cc_hum_1_boat3-car3.png,12.0,5,1
100,93,7.0325,cat,knife,1111_cc_hum_1_knife1-dog1.png,12.0,5,1
100,94,1.4671,elephant,elephant,1111_cc_hum_1_elephant8-clock2.png,12.0,5,1
100,95,0.9668,truck,truck,1111_cc_hum_1_truck2-chair1.png,12.0,5,1
100,96,0.2673,elephant,elephant,1111_cc_hum_1_elephant4-clock3.png,12.0,5,1
100,97,1.4506,oven,oven,1111_cc_hum_1_oven1-boat3.png,12.0,5,1
100,98,0.5002,dog,dog,1111_cc_hum_0_dog_40_n02102318_11816.JPEG,12.0,5,0
100,99,0.2504,elephant,elephant,1111_cc_hum_0_elephant_40_n02504458_1848.JPEG,12.0,5,0
100,100,0.484,bicycle,bicycle,1111_cc_hum_0_bicycle_40_n02835271_276.JPEG,12.0,5,0
100,101,0.6169,bear,bear,1111_cc_hum_0_bear_40_n02134418_4041.JPEG,12.0,6,0
100,102,0.4672,airplane,airplane,1111_cc_hum_0_airplane_40_n02690373_8789.JPEG,12.0,6,0
100,103,0.6498,elephant,elephant,1111_cc_hum_0_elephant_40_n02504458_4336.JPEG,12.0,6,0
100,104,0.3838,bear,bear,1111_cc_hum_1_bear8-dog1.png,12.0,6,1
100,105,0.4669,clock,clock,1111_cc_hum_1_clock3-cat1.png,12.0,6,1
100,106,3.033,chair,chair,1111_cc_hum_1_chair1-truck3.png,12.0,6,1
100,107,3.05,elephant,car,1111_cc_hum_1_car4-bird1.png,12.0,6,1
100,108,1.1003,elephant,knife,1111_cc_hum_1_knife1-elephant1.png,12.0,6,1
100,109,0.3669,cat,cat,1111_cc_hum_1_cat5-bottle1.png,12.0,6,1
100,110,0.2502,car,car,1111_cc_hum_0_car_40_n02814533_23512.JPEG,12.0,6,0
100,111,1.7335,bottle,bottle,1111_cc_hum_0_bottle_40_n04591713_5754.JPEG,12.0,6,0
100,112,0.6337,bottle,bottle,1111_cc_hum_1_bottle3-cat3.png,12.0,6,1
100,113,0.8003,bird,bird,1111_cc_hum_1_bird5-truck2.png,12.0,6,1
100,114,0.4673,chair,chair,1111_cc_hum_1_chair10-airplane2.png,12.0,6,1
100,115,0.5503,dog,dog,1111_cc_hum_1_dog4-oven1.png,12.0,6,1
100,116,0.3339,bicycle,bicycle,1111_cc_hum_1_bicycle3-oven3.png,12.0,6,1
100,117,0.5338,elephant,elephant,1111_cc_hum_1_elephant3-keyboard2.png,12.0,6,1
100,118,0.4835,bird,bird,1111_cc_hum_0_bird_40_n01843383_8077.JPEG,12.0,6,0
100,119,1.0504,chair,chair,1111_cc_hum_0_chair_40_n04429376_9212.JPEG,12.0,6,0
100,120,0.3173,knife,knife,1111_cc_hum_0_knife_40_n03041632_11797.JPEG,12.0,6,0
104,1,1.1674,truck,truck,1111_cc_hum_0_truck_40_n03796401_4309.JPEG,12.0,3,0
104,2,1.067,dog,dog,1111_cc_hum_0_dog_40_n02088632_2814.JPEG,12.0,3,0
104,3,1.9506,keyboard,keyboard,1111_cc_hum_0_keyboard_40_n04505470_933.JPEG,12.0,3,0
104,4,6.1161,cat,cat,1111_cc_hum_1_cat1-airplane1.png,12.0,3,1
104,5,1.1337,bottle,bottle,1111_cc_hum_1_bottle9-truck1.png,12.0,3,1
104,6,3.3334,clock,clock,1111_cc_hum_1_clock9-cat1.png,12.0,3,1
104,7,0.9836,truck,truck,1111_cc_hum_1_truck2-boat3.png,12.0,3,1
104,8,0.9339,bicycle,bicycle,1111_cc_hum_1_bicycle1-clock3.png,12.0,3,1
104,9,0.8838,elephant,elephant,1111_cc_hum_1_elephant2-bird1.png,12.0,3,1
104,10,0.9169,bird,bird,1111_cc_hum_1_bird1-oven1.png,12.0,3,1
104,11,105.6532,keyboard,car,1111_cc_hum_1_car10-keyboard2.png,12.0,3,1
104,12,1.6006,car,car,1111_cc_hum_1_car4-boat1.png,12.0,3,1
104,13,1.0006,bear,bear,1111_cc_hum_0_bear_40_n02134084_2004.JPEG,12.0,3,0
104,14,0.5173,elephant,elephant,1111_cc_hum_1_elephant5-bottle2.png,12.0,3,1
104,15,0.7173,chair,chair,1111_cc_hum_1_chair7-truck3.png,12.0,3,1
104,16,0.7337,chair,chair,1111_cc_hum_1_chair9-boat2.png,12.0,3,1
104,17,4.6332,elephant,oven,1111_cc_hum_0_oven_40_n04111531_1054.JPEG,12.0,3,0
104,18,1.4504,cat,cat,1111_cc_hum_0_cat_40_n02124075_9716.JPEG,12.0,3,0
104,19,0.8673,bicycle,bicycle,1111_cc_hum_0_bicycle_40_n03792782_52601.JPEG,12.0,3,0
104,20,0.9501,knife,knife,1111_cc_hum_0_knife_40_n03041632_24277.JPEG,12.0,3,0
104,21,0.6174,airplane,airplane,1111_cc_hum_0_airplane_40_n02690373_6999.JPEG,12.0,4,0
104,22,0.9338,elephant,elephant,1111_cc_hum_0_elephant_40_n02504458_4954.JPEG,12.0,4,0
104,23,0.5505,airplane,airplane,1111_cc_hum_0_airplane_40_n02690373_6853.JPEG,12.0,4,0
104,24,2.4001,knife,boat,1111_cc_hum_1_boat7-keyboard3.png,12.0,4,1
104,25,2.1169,truck,truck,1111_cc_hum_1_truck2-bottle3.png,12.0,4,1
