subj,trial,rt,object_response,category,imagename,age,block,difficulty
16,1,0.5506,dog,dog,1111_cc_hum_0_dog_40_n02101388_2075.JPEG,14.0,1,0
16,2,1.3505,oven,oven,1111_cc_hum_0_oven_40_n04111531_23215.JPEG,14.0,1,0
16,3,0.7841,cat,cat,1111_cc_hum_0_cat_40_n02123045_8774.JPEG,14.0,1,0
16,4,2.8002,elephant,cat,1111_cc_hum_1_cat5-elephant2.png,14.0,1,1
16,5,1.2173,bear,bear,1111_cc_hum_1_bear8-bottle1.png,14.0,1,1
16,6,1.0006,keyboard,keyboard,1111_cc_hum_0_keyboard_40_n03085013_19436.JPEG,14.0,1,0
16,7,3.0832,car,knife,1111_cc_hum_1_knife7-car2.png,14.0,1,1
16,8,2.0335,bear,bear,1111_cc_hum_1_bear8-elephant2.png,14.0,1,1
16,9,10.6662,keyboard,cat,1111_cc_hum_1_cat5-airplane2.png,14.0,1,1
16,10,6.266,chair,knife,1111_cc_hum_1_knife10-chair1.png,14.0,1,1
16,11,1.2004,clock,clock,1111_cc_hum_0_clock_40_n04548280_2518.JPEG,14.0,1,0
16,12,0.9336,airplane,airplane,1111_cc_hum_1_airplane1-clock1.png,14.0,1,1
16,13,5.6331,boat,boat,1111_cc_hum_1_boat7-cat3.png,14.0,1,1
16,14,0.9505,truck,truck,1111_cc_hum_1_truck5-car1.png,14.0,1,1
16,15,0.7338,keyboard,keyboard,1111_cc_hum_1_keyboard6-bicycle1.png,14.0,1,1
16,16,0.7173,elephant,elephant,1111_cc_hum_1_elephant8-dog1.png,14.0,1,1
16,17,0.5669,car,car,1111_cc_hum_1_car10-bicycle2.png,14.0,1,1
16,18,0.6336,boat,boat,1111_cc_hum_0_boat_40_n02951358_2853.JPEG,14.0,1,0
16,19,0.5337,car,car,1111_cc_hum_0_car_40_n03100240_6805.JPEG,14.0,1,0
16,20,1.6333,boat,boat,1111_cc_hum_0_boat_40_n04612504_30742.JPEG,14.0,1,0
16,21,2.8168,bottle,bottle,1111_cc_hum_0_bottle_40_n04560804_12278.JPEG,14.0,2,0
16,22,0.5168,car,car,1111_cc_hum_0_car_40_n04285008_3280.JPEG,14.0,2,0
16,23,0.4668,chair,chair,1111_cc_hum_0_chair_40_n03376595_4469.JPEG,14.0,2,0
16,24,0.7006,bicycle,bicycle,1111_cc_hum_1_bicycle3-bird1.png,14.0,2,1
16,25,0.3173,elephant,elephant,1111_cc_hum_0_elephant_40_n02504013_1916.JPEG,14.0,2,0
16,26,0.3837,clock,clock,1111_cc_hum_1_clock7-cat2.png,14.0,2,1
16,27,1.0172,dog,dog,1111_cc_hum_1_dog1-bear1.png,14.0,2,1
16,28,6.0166,bear,airplane,1111_cc_hum_1_airplane2-dog1.png,14.0,2,1
16,29,0.6171,bicycle,bicycle,1111_cc_hum_1_bicycle4-oven3.png,14.0,2,1
16,30,2.217,car,knife,1111_cc_hum_1_knife8-bicycle1.png,14.0,2,1
16,31,3.2666,bear,airplane,1111_cc_hum_1_airplane2-bear1.png,14.0,2,1
16,32,0.4337,car,car,1111_cc_hum_1_car5-truck3.png,14.0,2,1
16,33,0.9332,truck,truck,1111_cc_hum_0_truck_40_n03417042_12133.JPEG,14.0,2,0
16,34,0.7504,bird,bird,1111_cc_hum_1_bird9-dog2.png,14.0,2,1
16,35,0.6171,car,car,1111_cc_hum_1_car8-chair1.png,14.0,2,1
16,36,1.9834,elephant,airplane,1111_cc_hum_1_airplane4-elephant1.png,14.0,2,1
16,37,0.7335,dog,dog,1111_cc_hum_1_dog6-clock1.png,14.0,2,1
16,38,0.6668,bear,bear,1111_cc_hum_0_bear_40_n02134084_5027.JPEG,14.0,2,0
16,39,0.9001,knife,knife,1111_cc_hum_0_knife_40_n03041632_24114.JPEG,14.0,2,0
16,40,0.5006,chair,chair,1111_cc_hum_0_chair_40_n03376595_2566.JPEG,14.0,2,0
16,41,0.5507,truck,truck,1111_cc_hum_0_truck_40_n03796401_4309.JPEG,14.0,3,0
16,42,2.0334,dog,dog,1111_cc_hum_0_dog_40_n02088632_2814.JPEG,14.0,3,0
16,43,1.3668,bear,bear,1111_cc_hum_0_bear_40_n02134084_2004.JPEG,14.0,3,0
16,44,0.6668,elephant,elephant,1111_cc_hum_1_elephant5-bottle2.png,14.0,3,1
16,45,0.5675,bicycle,bicycle,1111_cc_hum_1_bicycle1-clock3.png,14.0,3,1
16,46,1.0171,elephant,elephant,1111_cc_hum_1_elephant2-bird1.png,14.0,3,1
16,47,4.5166,clock,clock,1111_cc_hum_1_clock9-cat1.png,14.0,3,1
16,48,0.5669,chair,chair,1111_cc_hum_1_chair9-boat2.png,14.0,3,1
16,49,0.8008,car,car,1111_cc_hum_1_car10-keyboard2.png,14.0,3,1
16,50,2.0668,bottle,bottle,1111_cc_hum_1_bottle9-truck1.png,14.0,3,1
16,51,1.3003,cat,cat,1111_cc_hum_0_cat_40_n02124075_9716.JPEG,14.0,3,0
16,52,0.9506,bicycle,bicycle,1111_cc_hum_0_bicycle_40_n03792782_52601.JPEG,14.0,3,0
16,53,0.5839,chair,chair,1111_cc_hum_1_chair7-truck3.png,14.0,3,1
16,54,0.6505,car,car,1111_cc_hum_1_car4-boat1.png,14.0,3,1
16,55,1.7669,truck,truck,1111_cc_hum_1_truck2-boat3.png,14.0,3,1
16,56,0.4669,bird,bird,1111_cc_hum_1_bird1-oven1.png,14.0,3,1
16,57,0.6006,cat,cat,1111_cc_hum_1_cat1-airplane1.png,14.0,3,1
16,58,0.6337,keyboard,keyboard,1111_cc_hum_0_keyboard_40_n04505470_933.JPEG,14.0,3,0
16,59,1.0838,oven,oven,1111_cc_hum_0_oven_40_n04111531_1054.JPEG,14.0,3,0
16,60,0.6005,knife,knife,1111_cc_hum_0_knife_40_n03041632_24277.JPEG,14.0,3,0
16,61,0.5004,bird,bird,1111_cc_hum_0_bird_40_n02037110_11551.JPEG,14.0,4,0
16,62,0.3505,bird,bird,1111_cc_hum_0_bird_40_n01530575_4260.JPEG,14.0,4,0
16,63,0.4501,airplane,airplane,1111_cc_hum_0_airplane_40_n02690373_6853.JPEG,14.0,4,0
16,64,0.5006,airplane,airplane,1111_cc_hum_0_airplane_40_n02690373_6999.JPEG,14.0,4,0
16,65,0.5004,elephant,elephant,1111_cc_hum_0_elephant_40_n02504458_4954.JPEG,14.0,4,0
16,66,0.9834,clock,clock,1111_cc_hum_1_clock6-chair3.png,14.0,4,1
16,67,1.2502,truck,truck,1111_cc_hum_1_truck2-bottle3.png,14.0,4,1
16,68,0.7172,chair,chair,1111_cc_hum_1_chair4-oven2.png,14.0,4,1
16,69,0.8170000000000001,keyboard,bear,1111_cc_hum_1_bear9-keyboard3.png,14.0,4,1
16,70,3.0336,dog,dog,1111_cc_hum_1_dog5-bear3.png,14.0,4,1
16,71,12.9986,chair,elephant,1111_cc_hum_1_elephant10-knife3.png,14.0,4,1
16,72,0.7509,boat,boat,1111_cc_hum_1_boat6-car1.png,14.0,4,1
16,73,0.8168,clock,clock,1111_cc_hum_1_clock2-knife1.png,14.0,4,1
16,74,1.7502,clock,clock,1111_cc_hum_1_clock4-airplane1.png,14.0,4,1
16,75,0.6337,truck,truck,1111_cc_hum_1_truck1-knife1.png,14.0,4,1
16,76,16.715,bird,boat,1111_cc_hum_1_boat7-keyboard3.png,14.0,4,1
16,77,1.1336,chair,chair,1111_cc_hum_1_chair10-bird3.png,14.0,4,1
16,78,0.7673,bicycle,bicycle,1111_cc_hum_0_bicycle_40_n03792782_14216.JPEG,14.0,4,0
16,79,3.0832,bottle,bottle,1111_cc_hum_0_bottle_40_n04591713_2718.JPEG,14.0,4,0
16,80,1.1669,clock,clock,1111_cc_hum_0_clock_40_n03196217_585.JPEG,14.0,4,0
16,81,1.5674,boat,boat,1111_cc_hum_0_boat_40_n02951358_4826.JPEG,14.0,5,0
16,82,0.4173,bear,bear,1111_cc_hum_0_bear_40_n02133161_2137.JPEG,14.0,5,0
16,83,0.8504,truck,truck,1111_cc_hum_0_truck_40_n03417042_14000.JPEG,14.0,5,0
16,84,0.7838,truck,truck,1111_cc_hum_1_truck2-chair1.png,14.0,5,1
16,85,2.3838,bicycle,keyboard,1111_cc_hum_1_keyboard3-bicycle2.png,14.0,5,1
16,86,1.2003,chair,airplane,1111_cc_hum_1_airplane6-chair3.png,14.0,5,1
16,87,0.6336,cat,cat,1111_cc_hum_0_cat_40_n02123045_964.JPEG,14.0,5,0
16,88,1.2005,elephant,elephant,1111_cc_hum_1_elephant8-clock2.png,14.0,5,1
16,89,0.7836,dog,dog,1111_cc_hum_0_dog_40_n02102318_11816.JPEG,14.0,5,0
16,90,0.8839,elephant,elephant,1111_cc_hum_1_elephant4-clock3.png,14.0,5,1
16,91,2.4002,bear,knife,1111_cc_hum_1_knife1-dog1.png,14.0,5,1
16,92,3.7498,car,boat,1111_cc_hum_1_boat3-car3.png,14.0,5,1
16,93,0.7335,cat,cat,1111_cc_hum_1_cat10-bird2.png,14.0,5,1
16,94,0.8837,cat,cat,1111_cc_hum_1_cat5-knife2.png,14.0,5,1
16,95,0.9504,oven,oven,1111_cc_hum_1_oven1-boat3.png,14.0,5,1
16,96,2.1503,elephant,bear,1111_cc_hum_1_bear10-clock1.png,14.0,5,1
16,97,3.2169,cat,bear,1111_cc_hum_1_bear10-knife2.png,14.0,5,1
16,98,2.2838,chair,knife,1111_cc_hum_0_knife_40_n03041632_14224.JPEG,14.0,5,0
16,99,0.8503,elephant,elephant,1111_cc_hum_0_elephant_40_n02504458_1848.JPEG,14.0,5,0
16,100,1.3836,bicycle,bicycle,1111_cc_hum_0_bicycle_40_n02835271_276.JPEG,14.0,5,0
16,101,0.4168,elephant,elephant,1111_cc_hum_0_elephant_40_n02504458_4336.JPEG,14.0,6,0
16,102,0.4736,bottle,bottle,1111_cc_hum_0_bottle_40_n04591713_5754.JPEG,14.0,6,0
16,103,0.7170000000000001,knife,knife,1111_cc_hum_0_knife_40_n03041632_11797.JPEG,14.0,6,0
16,104,0.4169,chair,chair,1111_cc_hum_1_chair10-airplane2.png,14.0,6,1
16,105,2.1832,bird,dog,1111_cc_hum_1_dog4-oven1.png,14.0,6,1
16,106,1.1005,elephant,knife,1111_cc_hum_1_knife1-elephant1.png,14.0,6,1
16,107,1.7669,airplane,airplane,1111_cc_hum_0_airplane_40_n02690373_8789.JPEG,14.0,6,0
16,108,0.8839,chair,chair,1111_cc_hum_1_chair1-truck3.png,14.0,6,1
16,109,0.7172,car,car,1111_cc_hum_1_car4-bird1.png,14.0,6,1
16,110,7.0333,bear,bear,1111_cc_hum_0_bear_40_n02134418_4041.JPEG,14.0,6,0
16,111,0.6168,bear,bear,1111_cc_hum_1_bear8-dog1.png,14.0,6,1
16,112,0.5505,clock,clock,1111_cc_hum_1_clock3-cat1.png,14.0,6,1
16,113,0.9336,bottle,bottle,1111_cc_hum_1_bottle3-cat3.png,14.0,6,1
16,114,1.0667,elephant,elephant,1111_cc_hum_1_elephant3-keyboard2.png,14.0,6,1
16,115,2.4333,bicycle,bicycle,1111_cc_hum_1_bicycle3-oven3.png,14.0,6,1
16,116,3.6501,car,bird,1111_cc_hum_1_bird5-truck2.png,14.0,6,1
16,117,0.6837,cat,cat,1111_cc_hum_1_cat5-bottle1.png,14.0,6,1
16,118,0.7504,car,car,1111_cc_hum_0_car_40_n02814533_23512.JPEG,14.0,6,0
16,119,3.0501,chair,chair,1111_cc_hum_0_chair_40_n04429376_9212.JPEG,14.0,6,0
16,120,0.5669,bird,bird,1111_cc_hum_0_bird_40_n01843383_8077.JPEG,14.0,6,0
19,1,1.3504,oven,oven,1111_cc_hum_0_oven_40_n04111531_23215.JPEG,13.0,1,0
19,2,1.3836,car,car,1111_cc_hum_0_car_40_n03100240_6805.JPEG,13.0,1,0
19,3,1.2505,boat,boat,1111_cc_hum_0_boat_40_n04612504_30742.JPEG,13.0,1,0
19,4,1.0838,elephant,elephant,1111_cc_hum_1_elephant8-dog1.png,13.0,1,1
19,5,18.4813,keyboard,knife,1111_cc_hum_1_knife10-chair1.png,13.0,1,1
19,6,1.9002,car,knife,1111_cc_hum_1_knife7-car2.png,13.0,1,1
19,7,2.1839,airplane,cat,1111_cc_hum_1_cat5-airplane2.png,13.0,1,1
19,8,1.1003,boat,boat,1111_cc_hum_0_boat_40_n02951358_2853.JPEG,13.0,1,0
19,9,0.9838,bear,bear,1111_cc_hum_1_bear8-bottle1.png,13.0,1,1
19,10,6.1667,elephant,boat,1111_cc_hum_1_boat7-cat3.png,13.0,1,1
19,11,0.9171,truck,truck,1111_cc_hum_1_truck5-car1.png,13.0,1,1
19,12,3.0502,elephant,cat,1111_cc_hum_1_cat5-elephant2.png,13.0,1,1
19,13,1.1005,bear,bear,1111_cc_hum_1_bear8-elephant2.png,13.0,1,1
19,14,1.0337,car,car,1111_cc_hum_1_car10-bicycle2.png,13.0,1,1
19,15,0.9173,keyboard,keyboard,1111_cc_hum_0_keyboard_40_n03085013_19436.JPEG,13.0,1,0
19,16,1.7498,keyboard,keyboard,1111_cc_hum_1_keyboard6-bicycle1.png,13.0,1,1
19,17,1.2002,airplane,airplane,1111_cc_hum_1_airplane1-clock1.png,13.0,1,1
19,18,1.2834,dog,dog,1111_cc_hum_0_dog_40_n02101388_2075.JPEG,13.0,1,0
19,19,1.3837,clock,clock,1111_cc_hum_0_clock_40_n04548280_2518.JPEG,13.0,1,0
19,20,1.4169,cat,cat,1111_cc_hum_0_cat_40_n02123045_8774.JPEG,13.0,1,0
19,21,2.1169,knife,knife,1111_cc_hum_0_knife_40_n03041632_24114.JPEG,13.0,2,0
19,22,1.2003,elephant,elephant,1111_cc_hum_0_elephant_40_n02504013_1916.JPEG,13.0,2,0
19,23,1.9838,bottle,bottle,1111_cc_hum_0_bottle_40_n04560804_12278.JPEG,13.0,2,0
19,24,1.7504,bicycle,bicycle,1111_cc_hum_1_bicycle3-bird1.png,13.0,2,1
19,25,1.6673,elephant,airplane,1111_cc_hum_1_airplane2-bear1.png,13.0,2,1
19,26,4.2834,elephant,airplane,1111_cc_hum_1_airplane4-elephant1.png,13.0,2,1
19,27,1.067,clock,clock,1111_cc_hum_1_clock7-cat2.png,13.0,2,1
19,28,1.0003,dog,dog,1111_cc_hum_1_dog1-bear1.png,13.0,2,1
19,29,3.567,keyboard,knife,1111_cc_hum_1_knife8-bicycle1.png,13.0,2,1
19,30,1.0841,car,car,1111_cc_hum_1_car8-chair1.png,13.0,2,1
19,31,1.3337,chair,chair,1111_cc_hum_0_chair_40_n03376595_4469.JPEG,13.0,2,0
19,32,3.7665,bear,airplane,1111_cc_hum_1_airplane2-dog1.png,13.0,2,1
19,33,1.3508,bicycle,bicycle,1111_cc_hum_1_bicycle4-oven3.png,13.0,2,1
19,34,1.3169,bird,bird,1111_cc_hum_1_bird9-dog2.png,13.0,2,1
19,35,1.4169999999999998,car,car,1111_cc_hum_1_car5-truck3.png,13.0,2,1
19,36,1.1171,truck,truck,1111_cc_hum_0_truck_40_n03417042_12133.JPEG,13.0,2,0
19,37,1.25,dog,dog,1111_cc_hum_1_dog6-clock1.png,13.0,2,1
19,38,1.1503,chair,chair,1111_cc_hum_0_chair_40_n03376595_2566.JPEG,13.0,2,0
19,39,0.9502,bear,bear,1111_cc_hum_0_bear_40_n02134084_5027.JPEG,13.0,2,0
19,40,0.8502,car,car,1111_cc_hum_0_car_40_n04285008_3280.JPEG,13.0,2,0
19,41,1.0,truck,truck,1111_cc_hum_0_truck_40_n03796401_4309.JPEG,13.0,3,0
19,42,1.1001,cat,cat,1111_cc_hum_0_cat_40_n02124075_9716.JPEG,13.0,3,0
19,43,1.1169,bicycle,bicycle,1111_cc_hum_0_bicycle_40_n03792782_52601.JPEG,13.0,3,0
19,44,0.9337,chair,chair,1111_cc_hum_1_chair7-truck3.png,13.0,3,1
19,45,1.3835,elephant,elephant,1111_cc_hum_1_elephant5-bottle2.png,13.0,3,1
19,46,0.8337,bottle,bottle,1111_cc_hum_1_bottle9-truck1.png,13.0,3,1
19,47,1.0504,car,car,1111_cc_hum_1_car10-keyboard2.png,13.0,3,1
19,48,1.2508,bird,bird,1111_cc_hum_1_bird1-oven1.png,13.0,3,1
19,49,0.7172,clock,clock,1111_cc_hum_1_clock9-cat1.png,13.0,3,1
19,50,1.167,truck,truck,1111_cc_hum_1_truck2-boat3.png,13.0,3,1
19,51,1.1005,keyboard,keyboard,1111_cc_hum_0_keyboard_40_n04505470_933.JPEG,13.0,3,0
19,52,1.2337,car,car,1111_cc_hum_1_car4-boat1.png,13.0,3,1
19,53,1.0172,bicycle,bicycle,1111_cc_hum_1_bicycle1-clock3.png,13.0,3,1
19,54,1.0837,elephant,elephant,1111_cc_hum_1_elephant2-bird1.png,13.0,3,1
19,55,0.9337,cat,cat,1111_cc_hum_1_cat1-airplane1.png,13.0,3,1
19,56,0.5997,bear,bear,1111_cc_hum_0_bear_40_n02134084_2004.JPEG,13.0,3,0
19,57,0.9338,chair,chair,1111_cc_hum_1_chair9-boat2.png,13.0,3,1
19,58,0.9841,dog,dog,1111_cc_hum_0_dog_40_n02088632_2814.JPEG,13.0,3,0
19,59,1.2499,knife,knife,1111_cc_hum_0_knife_40_n03041632_24277.JPEG,13.0,3,0
19,60,1.4834,oven,oven,1111_cc_hum_0_oven_40_n04111531_1054.JPEG,13.0,3,0
19,61,0.7501,elephant,elephant,1111_cc_hum_0_elephant_40_n02504458_4954.JPEG,13.0,4,0
19,62,1.1503,bird,bird,1111_cc_hum_0_bird_40_n02037110_11551.JPEG,13.0,4,0
19,63,0.917,bird,bird,1111_cc_hum_0_bird_40_n01530575_4260.JPEG,13.0,4,0
19,64,2.7171,bottle,boat,1111_cc_hum_1_boat7-keyboard3.png,13.0,4,1
19,65,1.634,elephant,bear,1111_cc_hum_1_bear9-keyboard3.png,13.0,4,1
19,66,0.8838,chair,chair,1111_cc_hum_1_chair10-bird3.png,13.0,4,1
19,67,1.117,clock,clock,1111_cc_hum_1_clock6-chair3.png,13.0,4,1
19,68,4.2166,oven,boat,1111_cc_hum_1_boat6-car1.png,13.0,4,1
19,69,1.5837,knife,airplane,1111_cc_hum_0_airplane_40_n02690373_6853.JPEG,13.0,4,0
19,70,1.5669,chair,chair,1111_cc_hum_1_chair4-oven2.png,13.0,4,1
19,71,1.4003,clock,clock,1111_cc_hum_1_clock4-airplane1.png,13.0,4,1
19,72,1.1505,truck,truck,1111_cc_hum_1_truck1-knife1.png,13.0,4,1
19,73,1.2508,clock,clock,1111_cc_hum_0_clock_40_n03196217_585.JPEG,13.0,4,0
19,74,1.0004,truck,truck,1111_cc_hum_1_truck2-bottle3.png,13.0,4,1
19,75,1.067,clock,clock,1111_cc_hum_1_clock2-knife1.png,13.0,4,1
19,76,0.9165,dog,dog,1111_cc_hum_1_dog5-bear3.png,13.0,4,1
19,77,5.0003,elephant,elephant,1111_cc_hum_1_elephant10-knife3.png,13.0,4,1
19,78,0.9669,airplane,airplane,1111_cc_hum_0_airplane_40_n02690373_6999.JPEG,13.0,4,0
19,79,0.9339,bottle,bottle,1111_cc_hum_0_bottle_40_n04591713_2718.JPEG,13.0,4,0
19,80,1.4337,bicycle,bicycle,1111_cc_hum_0_bicycle_40_n03792782_14216.JPEG,13.0,4,0
19,81,0.9174,bicycle,bicycle,1111_cc_hum_0_bicycle_40_n03792782_33855.JPEG,13.0,7,0
19,82,0.7836,dog,dog,1111_cc_hum_0_dog_40_n02099712_5781.JPEG,13.0,7,0
19,83,1.1171,bird,bird,1111_cc_hum_0_bird_40_n01537544_2772.JPEG,13.0,7,0
19,84,1.1837,keyboard,keyboard,1111_cc_hum_1_keyboard9-airplane3.png,13.0,7,1
19,85,0.8503,clock,clock,1111_cc_hum_1_clock9-airplane1.png,13.0,7,1
19,86,3.9499,bear,knife,1111_cc_hum_1_knife2-dog1.png,13.0,7,1
19,87,1.0502,car,car,1111_cc_hum_1_car9-bicycle2.png,13.0,7,1
19,88,1.4836,elephant,car,1111_cc_hum_1_car10-elephant2.png,13.0,7,1
19,89,0.934,bottle,bottle,1111_cc_hum_1_bottle3-chair3.png,13.0,7,1
19,90,4.0336,dog,cat,1111_cc_hum_0_cat_40_n02123159_2684.JPEG,13.0,7,0
19,91,0.9173,dog,dog,1111_cc_hum_1_dog1-boat3.png,13.0,7,1
19,92,0.8999,bicycle,bicycle,1111_cc_hum_1_bicycle10-boat3.png,13.0,7,1
19,93,0.9836,clock,clock,1111_cc_hum_1_clock1-bear1.png,13.0,7,1
19,94,1.0005,clock,clock,1111_cc_hum_1_clock3-car2.png,13.0,7,1
19,95,0.8337,keyboard,keyboard,1111_cc_hum_0_keyboard_40_n03085013_17762.JPEG,13.0,7,0
19,96,1.2505,knife,knife,1111_cc_hum_1_knife6-oven3.png,13.0,7,1
19,97,4.8667,cat,dog,1111_cc_hum_1_dog7-keyboard3.png,13.0,7,1
19,98,2.6004,bottle,bottle,1111_cc_hum_0_bottle_40_n03937543_2357.JPEG,13.0,7,0
19,99,0.9837,oven,oven,1111_cc_hum_0_oven_40_n04111531_10011.JPEG,13.0,7,0
19,100,1.767,boat,boat,1111_cc_hum_0_boat_40_n02951358_5718.JPEG,13.0,7,0
19,101,0.7337,car,car,1111_cc_hum_0_car_40_n02814533_82925.JPEG,13.0,8,0
19,102,0.9674,truck,truck,1111_cc_hum_0_truck_40_n03417042_28078.JPEG,13.0,8,0
19,103,1.5,keyboard,keyboard,1111_cc_hum_0_keyboard_40_n04505470_2115.JPEG,13.0,8,0
19,104,0.6839,car,car,1111_cc_hum_1_car2-knife3.png,13.0,8,1
19,105,0.8007,clock,clock,1111_cc_hum_0_clock_40_n04548280_1438.JPEG,13.0,8,0
19,106,3.7,keyboard,oven,1111_cc_hum_1_oven3-bear2.png,13.0,8,1
19,107,2.1169,elephant,bottle,1111_cc_hum_1_bottle7-bear1.png,13.0,8,1
19,108,1.2837,car,car,1111_cc_hum_1_car2-cat3.png,13.0,8,1
19,109,4.55,knife,keyboard,1111_cc_hum_1_keyboard4-truck3.png,13.0,8,1
19,110,2.9667,dog,chair,1111_cc_hum_1_chair8-keyboard3.png,13.0,8,1
19,111,1.767,dog,dog,1111_cc_hum_1_dog1-bird1.png,13.0,8,1
19,112,1.2669,bird,bird,1111_cc_hum_1_bird8-elephant1.png,13.0,8,1
19,113,1.4334,clock,clock,1111_cc_hum_0_clock_40_n03196217_5252.JPEG,13.0,8,0
19,114,0.9502,elephant,elephant,1111_cc_hum_1_elephant6-car3.png,13.0,8,1
19,115,0.8338,car,car,1111_cc_hum_1_car8-bicycle2.png,13.0,8,1
19,116,4.1666,bird,boat,1111_cc_hum_1_boat7-bottle1.png,13.0,8,1
19,117,3.15,bird,dog,1111_cc_hum_1_dog2-bottle2.png,13.0,8,1
19,118,1.4336,oven,oven,1111_cc_hum_0_oven_40_n04111531_7034.JPEG,13.0,8,0
19,119,1.4337,chair,chair,1111_cc_hum_0_chair_40_n04099969_2398.JPEG,13.0,8,0
19,120,1.2506,airplane,airplane,1111_cc_hum_0_airplane_40_n02690373_1071.JPEG,13.0,8,0
19,121,0.6668,truck,truck,1111_cc_hum_0_truck_40_n03417042_14000.JPEG,13.0,5,0
19,122,0.9501,dog,dog,1111_cc_hum_0_dog_40_n02102318_11816.JPEG,13.0,5,0
19,123,0.9336,bear,bear,1111_cc_hum_0_bear_40_n02133161_2137.JPEG,13.0,5,0
19,124,1.6837,bear,bear,1111_cc_hum_1_bear10-knife2.png,13.0,5,1
19,125,4.3829,cat,knife,1111_cc_hum_1_knife1-dog1.png,13.0,5,1
19,126,3.0336,knife,keyboard,1111_cc_hum_1_keyboard3-bicycle2.png,13.0,5,1
19,127,1.1002,boat,boat,1111_cc_hum_0_boat_40_n02951358_4826.JPEG,13.0,5,0
19,128,1.0667,elephant,elephant,1111_cc_hum_1_elephant4-clock3.png,13.0,5,1
19,129,5.4665,bird,airplane,1111_cc_hum_1_airplane6-chair3.png,13.0,5,1
19,130,2.6338,boat,boat,1111_cc_hum_1_boat3-car3.png,13.0,5,1
19,131,0.8838,elephant,elephant,1111_cc_hum_1_elephant8-clock2.png,13.0,5,1
19,132,1.4003,cat,cat,1111_cc_hum_1_cat10-bird2.png,13.0,5,1
19,133,1.267,cat,cat,1111_cc_hum_1_cat5-knife2.png,13.0,5,1
19,134,4.8997,bottle,knife,1111_cc_hum_0_knife_40_n03041632_14224.JPEG,13.0,5,0
19,135,1.8501,car,truck,1111_cc_hum_1_truck2-chair1.png,13.0,5,1
19,136,2.6168,oven,oven,1111_cc_hum_1_oven1-boat3.png,13.0,5,1
19,137,1.0835,bear,bear,1111_cc_hum_1_bear10-clock1.png,13.0,5,1
19,138,0.8837,elephant,elephant,1111_cc_hum_0_elephant_40_n02504458_1848.JPEG,13.0,5,0
19,139,1.2836,cat,cat,1111_cc_hum_0_cat_40_n02123045_964.JPEG,13.0,5,0
19,140,1.1337,bicycle,bicycle,1111_cc_hum_0_bicycle_40_n02835271_276.JPEG,13.0,5,0
19,141,0.9837,airplane,airplane,1111_cc_hum_0_airplane_40_n02690373_8789.JPEG,13.0,6,0
19,142,1.2674,elephant,elephant,1111_cc_hum_0_elephant_40_n02504458_4336.JPEG,13.0,6,0
19,143,0.9008,knife,knife,1111_cc_hum_0_knife_40_n03041632_11797.JPEG,13.0,6,0
19,144,0.9837,clock,clock,1111_cc_hum_1_clock3-cat1.png,13.0,6,1
19,145,1.0834,chair,chair,1111_cc_hum_1_chair10-airplane2.png,13.0,6,1
19,146,1.1503,bottle,bottle,1111_cc_hum_1_bottle3-cat3.png,13.0,6,1
19,147,1.3669,chair,chair,1111_cc_hum_0_chair_40_n04429376_9212.JPEG,13.0,6,0
19,148,0.6006,bear,bear,1111_cc_hum_1_bear8-dog1.png,13.0,6,1
19,149,1.0337,car,car,1111_cc_hum_1_car4-bird1.png,13.0,6,1
19,150,1.0837,cat,cat,1111_cc_hum_1_cat5-bottle1.png,13.0,6,1
19,151,0.8672,elephant,elephant,1111_cc_hum_1_elephant3-keyboard2.png,13.0,6,1
19,152,0.8335,bicycle,bicycle,1111_cc_hum_1_bicycle3-oven3.png,13.0,6,1
19,153,0.6504,car,car,1111_cc_hum_0_car_40_n02814533_23512.JPEG,13.0,6,0
19,154,0.867,dog,dog,1111_cc_hum_1_dog4-oven1.png,13.0,6,1
19,155,1.2174,knife,knife,1111_cc_hum_1_knife1-elephant1.png,13.0,6,1
19,156,0.6173,chair,chair,1111_cc_hum_1_chair1-truck3.png,13.0,6,1
19,157,1.1002,bird,bird,1111_cc_hum_1_bird5-truck2.png,13.0,6,1
19,158,0.9338,bird,bird,1111_cc_hum_0_bird_40_n01843383_8077.JPEG,13.0,6,0
19,159,0.9667,bottle,bottle,1111_cc_hum_0_bottle_40_n04591713_5754.JPEG,13.0,6,0
19,160,1.2339,bear,bear,1111_cc_hum_0_bear_40_n02134418_4041.JPEG,13.0,6,0
19,161,8.3832,bottle,knife,1111_cc_hum_0_knife_40_n03041632_21723.JPEG,13.0,9,0
19,162,0.9669,keyboard,keyboard,1111_cc_hum_0_keyboard_40_n03085013_2122.JPEG,13.0,9,0
19,163,2.0171,boat,boat,1111_cc_hum_0_boat_40_n04273569_13091.JPEG,13.0,9,0
19,164,0.8505,bottle,bottle,1111_cc_hum_0_bottle_40_n04579145_1302.JPEG,13.0,9,0
19,165,1.8338,clock,clock,1111_cc_hum_0_clock_40_n03196217_5478.JPEG,13.0,9,0
19,166,1.1506,airplane,airplane,1111_cc_hum_1_airplane1-chair2.png,13.0,9,1
19,167,1.6501,elephant,bear,1111_cc_hum_1_bear9-knife2.png,13.0,9,1
19,168,1.1,bicycle,bicycle,1111_cc_hum_1_bicycle3-elephant2.png,13.0,9,1
19,169,7.3664,keyboard,chair,1111_cc_hum_1_chair5-cat3.png,13.0,9,1
19,170,3.0501,cat,keyboard,1111_cc_hum_1_keyboard4-cat2.png,13.0,9,1
19,171,0.95,clock,clock,1111_cc_hum_1_clock8-airplane2.png,13.0,9,1
19,172,1.3837,elephant,elephant,1111_cc_hum_1_elephant7-knife2.png,13.0,9,1
19,173,1.3505,elephant,bird,1111_cc_hum_1_bird10-elephant2.png,13.0,9,1
19,174,0.8501,elephant,elephant,1111_cc_hum_1_elephant4-oven1.png,13.0,9,1
19,175,1.2005,keyboard,keyboard,1111_cc_hum_1_keyboard9-truck3.png,13.0,9,1
19,176,1.2671,elephant,elephant,1111_cc_hum_1_elephant7-keyboard3.png,13.0,9,1
19,177,1.0169,bird,bird,1111_cc_hum_1_bird6-car3.png,13.0,9,1
19,178,0.8004,dog,dog,1111_cc_hum_0_dog_40_n02110806_16707.JPEG,13.0,9,0
19,179,1.1837,chair,chair,1111_cc_hum_0_chair_40_n04429376_18127.JPEG,13.0,9,0
19,180,1.0838,knife,knife,1111_cc_hum_0_knife_40_n03041632_26340.JPEG,13.0,9,0
19,181,0.8836,bear,bear,1111_cc_hum_0_bear_40_n02134418_4895.JPEG,13.0,10,0
19,182,0.8003,oven,oven,1111_cc_hum_0_oven_40_n04111531_9712.JPEG,13.0,10,0
19,183,0.9668,chair,chair,1111_cc_hum_0_chair_40_n04429376_19101.JPEG,13.0,10,0
19,184,1.1002,car,car,1111_cc_hum_0_car_40_n02814533_32461.JPEG,13.0,10,0
19,185,1.0005,dog,dog,1111_cc_hum_1_dog9-bottle1.png,13.0,10,1
19,186,0.9172,clock,clock,1111_cc_hum_1_clock3-bear3.png,13.0,10,1
19,187,1.3005,knife,boat,1111_cc_hum_1_boat2-bird1.png,13.0,10,1
19,188,0.8173,elephant,elephant,1111_cc_hum_0_elephant_40_n02504458_4.JPEG,13.0,10,0
19,189,0.8169,keyboard,keyboard,1111_cc_hum_1_keyboard7-knife1.png,13.0,10,1
19,190,4.2665,keyboard,boat,1111_cc_hum_1_boat3-airplane2.png,13.0,10,1
19,191,1.0673,bicycle,bicycle,1111_cc_hum_1_bicycle5-car3.png,13.0,10,1
19,192,0.8167,elephant,elephant,1111_cc_hum_1_elephant1-boat2.png,13.0,10,1
19,193,0.8503,car,car,1111_cc_hum_1_car1-airplane1.png,13.0,10,1
19,194,1.2169,airplane,airplane,1111_cc_hum_1_airplane8-bicycle3.png,13.0,10,1
19,195,1.1169,cat,cat,1111_cc_hum_1_cat5-dog3.png,13.0,10,1
19,196,1.4834,boat,boat,1111_cc_hum_1_boat9-bird1.png,13.0,10,1
19,197,3.4667,cat,boat,1111_cc_hum_1_boat6-dog1.png,13.0,10,1
19,198,0.8837,cat,cat,1111_cc_hum_0_cat_40_n02124075_8351.JPEG,13.0,10,0
19,199,0.6173,airplane,airplane,1111_cc_hum_0_airplane_40_n02690373_19152.JPEG,13.0,10,0
19,200,0.8669,clock,clock,1111_cc_hum_0_clock_40_n03196217_3943.JPEG,13.0,10,0
22,1,0.5174,boat,boat,1111_cc_hum_0_boat_40_n04612504_30742.JPEG,14.0,1,0
22,2,0.4341,keyboard,keyboard,1111_cc_hum_0_keyboard_40_n03085013_19436.JPEG,14.0,1,0
22,3,1.2506,oven,oven,1111_cc_hum_0_oven_40_n04111531_23215.JPEG,14.0,1,0
22,4,0.5669,truck,truck,1111_cc_hum_1_truck5-car1.png,14.0,1,1
22,5,0.5173,car,car,1111_cc_hum_1_car10-bicycle2.png,14.0,1,1
22,6,0.7677,elephant,elephant,1111_cc_hum_1_elephant8-dog1.png,14.0,1,1
22,7,0.3336,car,car,1111_cc_hum_0_car_40_n03100240_6805.JPEG,14.0,1,0
22,8,0.6,airplane,airplane,1111_cc_hum_1_airplane1-clock1.png,14.0,1,1
22,9,1.9668,bear,bear,1111_cc_hum_1_bear8-elephant2.png,14.0,1,1
22,10,8.1658,elephant,cat,1111_cc_hum_1_cat5-elephant2.png,14.0,1,1
22,11,0.3675,bear,bear,1111_cc_hum_1_bear8-bottle1.png,14.0,1,1
22,12,1.0172,car,knife,1111_cc_hum_1_knife7-car2.png,14.0,1,1
22,13,4.0501,keyboard,knife,1111_cc_hum_1_knife10-chair1.png,14.0,1,1
22,14,15.5151,bird,cat,1111_cc_hum_1_cat5-airplane2.png,14.0,1,1
22,15,0.7836,keyboard,keyboard,1111_cc_hum_1_keyboard6-bicycle1.png,14.0,1,1
22,16,0.3676,boat,boat,1111_cc_hum_0_boat_40_n02951358_2853.JPEG,14.0,1,0
22,17,3.8502,cat,boat,1111_cc_hum_1_boat7-cat3.png,14.0,1,1
22,18,0.5505,clock,clock,1111_cc_hum_0_clock_40_n04548280_2518.JPEG,14.0,1,0
22,19,0.9005,cat,cat,1111_cc_hum_0_cat_40_n02123045_8774.JPEG,14.0,1,0
22,20,0.3506,dog,dog,1111_cc_hum_0_dog_40_n02101388_2075.JPEG,14.0,1,0
22,21,0.6171,chair,chair,1111_cc_hum_0_chair_40_n03376595_4469.JPEG,14.0,2,0
22,22,0.3172,car,car,1111_cc_hum_0_car_40_n04285008_3280.JPEG,14.0,2,0
22,23,0.9837,knife,knife,1111_cc_hum_0_knife_40_n03041632_24114.JPEG,14.0,2,0
22,24,0.267,car,car,1111_cc_hum_1_car8-chair1.png,14.0,2,1
22,25,0.267,car,car,1111_cc_hum_1_car5-truck3.png,14.0,2,1
22,26,0.2837,elephant,elephant,1111_cc_hum_0_elephant_40_n02504013_1916.JPEG,14.0,2,0
22,27,0.8167,bicycle,bicycle,1111_cc_hum_1_bicycle3-bird1.png,14.0,2,1
22,28,0.467,dog,dog,1111_cc_hum_1_dog6-clock1.png,14.0,2,1
22,29,11.6326,bird,airplane,1111_cc_hum_1_airplane2-dog1.png,14.0,2,1
22,30,0.2337,chair,chair,1111_cc_hum_0_chair_40_n03376595_2566.JPEG,14.0,2,0
22,31,0.467,dog,dog,1111_cc_hum_1_dog1-bear1.png,14.0,2,1
22,32,1.6002,elephant,airplane,1111_cc_hum_1_airplane4-elephant1.png,14.0,2,1
22,33,8.0163,dog,airplane,1111_cc_hum_1_airplane2-bear1.png,14.0,2,1
22,34,0.3335,clock,clock,1111_cc_hum_1_clock7-cat2.png,14.0,2,1
22,35,0.5002,bird,bird,1111_cc_hum_1_bird9-dog2.png,14.0,2,1
22,36,0.5005,bicycle,bicycle,1111_cc_hum_1_bicycle4-oven3.png,14.0,2,1
22,37,0.8671,knife,knife,1111_cc_hum_1_knife8-bicycle1.png,14.0,2,1
22,38,2.4167,bottle,bottle,1111_cc_hum_0_bottle_40_n04560804_12278.JPEG,14.0,2,0
22,39,0.6837,bear,bear,1111_cc_hum_0_bear_40_n02134084_5027.JPEG,14.0,2,0
22,40,1.5836,truck,truck,1111_cc_hum_0_truck_40_n03417042_12133.JPEG,14.0,2,0
22,41,0.4505,cat,cat,1111_cc_hum_0_cat_40_n02124075_9716.JPEG,14.0,3,0
22,42,0.4339,bear,bear,1111_cc_hum_0_bear_40_n02134084_2004.JPEG,14.0,3,0
22,43,0.5838,truck,truck,1111_cc_hum_0_truck_40_n03796401_4309.JPEG,14.0,3,0
22,44,0.5337,car,car,1111_cc_hum_1_car10-keyboard2.png,14.0,3,1
22,45,0.3506,chair,chair,1111_cc_hum_1_chair9-boat2.png,14.0,3,1
22,46,0.2175,cat,cat,1111_cc_hum_1_cat1-airplane1.png,14.0,3,1
22,47,0.3337,bicycle,bicycle,1111_cc_hum_0_bicycle_40_n03792782_52601.JPEG,14.0,3,0
22,48,0.6338,elephant,elephant,1111_cc_hum_1_elephant5-bottle2.png,14.0,3,1
22,49,1.3505,truck,truck,1111_cc_hum_1_truck2-boat3.png,14.0,3,1
22,50,0.3674,chair,chair,1111_cc_hum_1_chair7-truck3.png,14.0,3,1
22,51,0.5504,bird,bird,1111_cc_hum_1_bird1-oven1.png,14.0,3,1
22,52,1.3168,bottle,bottle,1111_cc_hum_1_bottle9-truck1.png,14.0,3,1
22,53,0.3168,keyboard,keyboard,1111_cc_hum_0_keyboard_40_n04505470_933.JPEG,14.0,3,0
22,54,0.5838,elephant,elephant,1111_cc_hum_1_elephant2-bird1.png,14.0,3,1
22,55,3.0502,dog,clock,1111_cc_hum_1_clock9-cat1.png,14.0,3,1
22,56,0.3006,bicycle,bicycle,1111_cc_hum_1_bicycle1-clock3.png,14.0,3,1
22,57,1.4338,car,car,1111_cc_hum_1_car4-boat1.png,14.0,3,1
22,58,0.467,knife,knife,1111_cc_hum_0_knife_40_n03041632_24277.JPEG,14.0,3,0
22,59,2.5502,oven,oven,1111_cc_hum_0_oven_40_n04111531_1054.JPEG,14.0,3,0
22,60,0.6005,dog,dog,1111_cc_hum_0_dog_40_n02088632_2814.JPEG,14.0,3,0
22,61,0.3007,bird,bird,1111_cc_hum_0_bird_40_n01530575_4260.JPEG,14.0,4,0
22,62,2.167,clock,clock,1111_cc_hum_0_clock_40_n03196217_585.JPEG,14.0,4,0
22,63,0.3674,elephant,elephant,1111_cc_hum_0_elephant_40_n02504458_4954.JPEG,14.0,4,0
22,64,5.7162,elephant,boat,1111_cc_hum_1_boat7-keyboard3.png,14.0,4,1
22,65,0.3676,chair,chair,1111_cc_hum_1_chair10-bird3.png,14.0,4,1
22,66,1.3169,bottle,bottle,1111_cc_hum_0_bottle_40_n04591713_2718.JPEG,14.0,4,0
22,67,0.5005,bicycle,bicycle,1111_cc_hum_0_bicycle_40_n03792782_14216.JPEG,14.0,4,0
22,68,2.0004,bird,elephant,1111_cc_hum_1_elephant10-knife3.png,14.0,4,1
22,69,0.8839,dog,dog,1111_cc_hum_1_dog5-bear3.png,14.0,4,1
22,70,0.3676,chair,chair,1111_cc_hum_1_chair4-oven2.png,14.0,4,1
22,71,1.8338,truck,truck,1111_cc_hum_1_truck2-bottle3.png,14.0,4,1
22,72,0.3337,truck,truck,1111_cc_hum_1_truck1-knife1.png,14.0,4,1
22,73,0.667,clock,clock,1111_cc_hum_1_clock6-chair3.png,14.0,4,1
22,74,1.0171,bear,bear,1111_cc_hum_1_bear9-keyboard3.png,14.0,4,1
22,75,2.7169,boat,boat,1111_cc_hum_1_boat6-car1.png,14.0,4,1
22,76,0.3999,clock,clock,1111_cc_hum_1_clock2-knife1.png,14.0,4,1
22,77,0.3007,clock,clock,1111_cc_hum_1_clock4-airplane1.png,14.0,4,1
22,78,0.2336,airplane,airplane,1111_cc_hum_0_airplane_40_n02690373_6999.JPEG,14.0,4,0
22,79,0.8338,bird,bird,1111_cc_hum_0_bird_40_n02037110_11551.JPEG,14.0,4,0
22,80,0.2504,airplane,airplane,1111_cc_hum_0_airplane_40_n02690373_6853.JPEG,14.0,4,0
22,81,0.3167,dog,dog,1111_cc_hum_0_dog_40_n02099712_5781.JPEG,14.0,7,0
22,82,0.8338,boat,boat,1111_cc_hum_0_boat_40_n02951358_5718.JPEG,14.0,7,0
22,83,0.75,bicycle,bicycle,1111_cc_hum_0_bicycle_40_n03792782_33855.JPEG,14.0,7,0
22,84,0.6837,clock,clock,1111_cc_hum_1_clock1-bear1.png,14.0,7,1
22,85,1.4501,dog,knife,1111_cc_hum_1_knife2-dog1.png,14.0,7,1
22,86,0.3005,bicycle,bicycle,1111_cc_hum_1_bicycle10-boat3.png,14.0,7,1
22,87,1.0166,keyboard,keyboard,1111_cc_hum_1_keyboard9-airplane3.png,14.0,7,1
22,88,8.5831,dog,dog,1111_cc_hum_1_dog1-boat3.png,14.0,7,1
22,89,0.667,bottle,bottle,1111_cc_hum_1_bottle3-chair3.png,14.0,7,1
22,90,0.4672,clock,clock,1111_cc_hum_1_clock9-airplane1.png,14.0,7,1
22,91,2.3002,knife,knife,1111_cc_hum_1_knife6-oven3.png,14.0,7,1
22,92,0.584,dog,dog,1111_cc_hum_1_dog7-keyboard3.png,14.0,7,1
22,93,0.3168,car,car,1111_cc_hum_1_car9-bicycle2.png,14.0,7,1
22,94,0.2341,clock,clock,1111_cc_hum_1_clock3-car2.png,14.0,7,1
22,95,0.3504,bird,bird,1111_cc_hum_0_bird_40_n01537544_2772.JPEG,14.0,7,0
22,96,0.4172,keyboard,keyboard,1111_cc_hum_0_keyboard_40_n03085013_17762.JPEG,14.0,7,0
22,97,3.1837,car,car,1111_cc_hum_1_car10-elephant2.png,14.0,7,1
22,98,9.4992,cat,cat,1111_cc_hum_0_cat_40_n02123159_2684.JPEG,14.0,7,0
22,99,1.1671,oven,oven,1111_cc_hum_0_oven_40_n04111531_10011.JPEG,14.0,7,0
22,100,2.1334,bottle,bottle,1111_cc_hum_0_bottle_40_n03937543_2357.JPEG,14.0,7,0
22,101,1.0507,clock,clock,1111_cc_hum_0_clock_40_n04548280_1438.JPEG,14.0,8,0
22,102,0.6001,keyboard,keyboard,1111_cc_hum_0_keyboard_40_n04505470_2115.JPEG,14.0,8,0
22,103,1.4337,clock,clock,1111_cc_hum_0_clock_40_n03196217_5252.JPEG,14.0,8,0
22,104,0.4836,dog,dog,1111_cc_hum_1_dog1-bird1.png,14.0,8,1
22,105,1.8003,oven,oven,1111_cc_hum_0_oven_40_n04111531_7034.JPEG,14.0,8,0
22,106,2.6836,dog,oven,1111_cc_hum_1_oven3-bear2.png,14.0,8,1
22,107,6.2833,cat,chair,1111_cc_hum_1_chair8-keyboard3.png,14.0,8,1
22,108,2.2412,bottle,boat,1111_cc_hum_1_boat7-bottle1.png,14.0,8,1
22,109,1.9502,dog,bottle,1111_cc_hum_1_bottle7-bear1.png,14.0,8,1
22,110,7.1994,elephant,elephant,1111_cc_hum_1_elephant6-car3.png,14.0,8,1
22,111,0.6337,car,car,1111_cc_hum_1_car8-bicycle2.png,14.0,8,1
22,112,0.7503,chair,chair,1111_cc_hum_0_chair_40_n04099969_2398.JPEG,14.0,8,0
22,113,0.4336,car,car,1111_cc_hum_1_car2-cat3.png,14.0,8,1
22,114,0.7668,bottle,dog,1111_cc_hum_1_dog2-bottle2.png,14.0,8,1
22,115,0.4505,car,car,1111_cc_hum_1_car2-knife3.png,14.0,8,1
22,116,1.3338,bird,bird,1111_cc_hum_1_bird8-elephant1.png,14.0,8,1
22,117,17.4319,dog,keyboard,1111_cc_hum_1_keyboard4-truck3.png,14.0,8,1
22,118,0.4008,car,car,1111_cc_hum_0_car_40_n02814533_82925.JPEG,14.0,8,0
22,119,13.6822,boat,truck,1111_cc_hum_0_truck_40_n03417042_28078.JPEG,14.0,8,0
22,120,1.0171,airplane,airplane,1111_cc_hum_0_airplane_40_n02690373_1071.JPEG,14.0,8,0
22,121,0.4671,dog,dog,1111_cc_hum_0_dog_40_n02102318_11816.JPEG,14.0,5,0
22,122,0.5004,cat,cat,1111_cc_hum_0_cat_40_n02123045_964.JPEG,14.0,5,0
22,123,0.5838,bear,bear,1111_cc_hum_0_bear_40_n02133161_2137.JPEG,14.0,5,0
22,124,2.7499,car,keyboard,1111_cc_hum_1_keyboard3-bicycle2.png,14.0,5,1
22,125,0.667,boat,boat,1111_cc_hum_0_boat_40_n02951358_4826.JPEG,14.0,5,0
22,126,0.6835,car,truck,1111_cc_hum_1_truck2-chair1.png,14.0,5,1
22,127,1.4338,airplane,airplane,1111_cc_hum_1_airplane6-chair3.png,14.0,5,1
22,128,1.8339,bird,bear,1111_cc_hum_1_bear10-knife2.png,14.0,5,1
22,129,1.2003,elephant,elephant,1111_cc_hum_1_elephant8-clock2.png,14.0,5,1
22,130,0.5667,bear,bear,1111_cc_hum_1_bear10-clock1.png,14.0,5,1
22,131,1.2338,knife,knife,1111_cc_hum_0_knife_40_n03041632_14224.JPEG,14.0,5,0
22,132,2.0171,bicycle,boat,1111_cc_hum_1_boat3-car3.png,14.0,5,1
22,133,12.5155,oven,oven,1111_cc_hum_1_oven1-boat3.png,14.0,5,1
22,134,28.7301,keyboard,cat,1111_cc_hum_1_cat5-knife2.png,14.0,5,1
22,135,1.2504,dog,knife,1111_cc_hum_1_knife1-dog1.png,14.0,5,1
22,136,0.4002,cat,cat,1111_cc_hum_1_cat10-bird2.png,14.0,5,1
22,137,0.3005,elephant,elephant,1111_cc_hum_1_elephant4-clock3.png,14.0,5,1
22,138,1.8501,bicycle,bicycle,1111_cc_hum_0_bicycle_40_n02835271_276.JPEG,14.0,5,0
22,139,0.3669,elephant,elephant,1111_cc_hum_0_elephant_40_n02504458_1848.JPEG,14.0,5,0
22,140,1.0003,truck,truck,1111_cc_hum_0_truck_40_n03417042_14000.JPEG,14.0,5,0
22,141,0.9502,bear,bear,1111_cc_hum_0_bear_40_n02134418_4041.JPEG,14.0,6,0
22,142,0.2842,car,car,1111_cc_hum_0_car_40_n02814533_23512.JPEG,14.0,6,0
22,143,17.3981,knife,knife,1111_cc_hum_0_knife_40_n03041632_11797.JPEG,14.0,6,0
22,144,0.917,bicycle,bicycle,1111_cc_hum_1_bicycle3-oven3.png,14.0,6,1
22,145,0.2836,bear,bear,1111_cc_hum_1_bear8-dog1.png,14.0,6,1
22,146,1.0338,elephant,elephant,1111_cc_hum_1_elephant3-keyboard2.png,14.0,6,1
22,147,0.4336,bird,bird,1111_cc_hum_1_bird5-truck2.png,14.0,6,1
22,148,0.3671,clock,clock,1111_cc_hum_1_clock3-cat1.png,14.0,6,1
22,149,0.5507,bird,bird,1111_cc_hum_0_bird_40_n01843383_8077.JPEG,14.0,6,0
22,150,0.5173,chair,chair,1111_cc_hum_1_chair1-truck3.png,14.0,6,1
22,151,0.4336,chair,chair,1111_cc_hum_1_chair10-airplane2.png,14.0,6,1
22,152,0.3166,car,car,1111_cc_hum_1_car4-bird1.png,14.0,6,1
22,153,0.7338,knife,knife,1111_cc_hum_1_knife1-elephant1.png,14.0,6,1
22,154,0.4835,airplane,airplane,1111_cc_hum_0_airplane_40_n02690373_8789.JPEG,14.0,6,0
22,155,0.4506,bottle,bottle,1111_cc_hum_1_bottle3-cat3.png,14.0,6,1
22,156,2.5337,bottle,cat,1111_cc_hum_1_cat5-bottle1.png,14.0,6,1
22,157,0.6006,dog,dog,1111_cc_hum_1_dog4-oven1.png,14.0,6,1
22,158,0.7337,bottle,bottle,1111_cc_hum_0_bottle_40_n04591713_5754.JPEG,14.0,6,0
22,159,2.3169,chair,chair,1111_cc_hum_0_chair_40_n04429376_9212.JPEG,14.0,6,0
22,160,0.3339,elephant,elephant,1111_cc_hum_0_elephant_40_n02504458_4336.JPEG,14.0,6,0
22,161,0.7512,bicycle,bicycle,1111_cc_hum_0_bicycle_40_n03792782_692.JPEG,14.0,11,0
22,162,1.3505,oven,oven,1111_cc_hum_0_oven_40_n04111531_9490.JPEG,14.0,11,0
22,163,0.5169,truck,truck,1111_cc_hum_0_truck_40_n03417042_16389.JPEG,14.0,11,0
22,164,2.7003,keyboard,bottle,1111_cc_hum_1_bottle9-keyboard1.png,14.0,11,1
22,165,7.3994,bird,knife,1111_cc_hum_1_knife6-boat3.png,14.0,11,1
22,166,0.8671,clock,clock,1111_cc_hum_1_clock1-boat3.png,14.0,11,1
22,167,0.4337,bicycle,bicycle,1111_cc_hum_1_bicycle9-chair1.png,14.0,11,1
22,168,0.4174,elephant,elephant,1111_cc_hum_1_elephant1-bottle1.png,14.0,11,1
22,169,0.5507,bicycle,bicycle,1111_cc_hum_0_bicycle_40_n03792782_3467.JPEG,14.0,11,0
22,170,1.6337,bird,bird,1111_cc_hum_1_bird8-keyboard2.png,14.0,11,1
22,171,2.9336,truck,truck,1111_cc_hum_1_truck10-bicycle1.png,14.0,11,1
22,172,1.867,elephant,boat,1111_cc_hum_1_boat3-clock3.png,14.0,11,1
22,173,2.1838,cat,cat,1111_cc_hum_1_cat5-chair3.png,14.0,11,1
22,174,0.9168,airplane,airplane,1111_cc_hum_1_airplane5-bicycle1.png,14.0,11,1
22,175,4.367,boat,chair,1111_cc_hum_1_chair5-bird1.png,14.0,11,1
22,176,4.9835,truck,oven,1111_cc_hum_1_oven2-truck3.png,14.0,11,1
22,177,0.4171,truck,truck,1111_cc_hum_0_truck_40_n03417042_19905.JPEG,14.0,11,0
22,178,0.4002,boat,boat,1111_cc_hum_0_boat_40_n04612504_8942.JPEG,14.0,11,0
22,179,0.3336,elephant,elephant,1111_cc_hum_0_elephant_40_n02504013_6660.JPEG,14.0,11,0
22,180,0.2839,cat,cat,1111_cc_hum_0_cat_40_n02124075_14094.JPEG,14.0,11,0
22,181,0.417,dog,dog,1111_cc_hum_0_dog_40_n02108000_324.JPEG,14.0,12,0
22,182,0.4838,bear,bear,1111_cc_hum_0_bear_40_n02132136_6787.JPEG,14.0,12,0
22,183,0.2506,bird,bird,1111_cc_hum_0_bird_40_n01532829_22520.JPEG,14.0,12,0
22,184,0.5506,elephant,elephant,1111_cc_hum_1_elephant3-cat2.png,14.0,12,1
22,185,0.3335,bicycle,bicycle,1111_cc_hum_1_bicycle7-clock3.png,14.0,12,1
22,186,0.3505,bicycle,bicycle,1111_cc_hum_1_bicycle4-truck3.png,14.0,12,1
22,187,0.9835,bottle,bottle,1111_cc_hum_0_bottle_40_n04560804_32398.JPEG,14.0,12,0
22,188,0.4175,bicycle,bicycle,1111_cc_hum_1_bicycle1-dog3.png,14.0,12,1
22,189,1.0502,elephant,cat,1111_cc_hum_1_cat10-elephant3.png,14.0,12,1
22,190,4.0666,dog,knife,1111_cc_hum_1_knife2-bear2.png,14.0,12,1
22,191,1.3336,keyboard,keyboard,1111_cc_hum_0_keyboard_40_n04505470_1430.JPEG,14.0,12,0
22,192,1.0836,keyboard,keyboard,1111_cc_hum_1_keyboard10-oven3.png,14.0,12,1
22,193,0.7003,bird,bird,1111_cc_hum_1_bird10-clock1.png,14.0,12,1
22,194,7.6329,chair,knife,1111_cc_hum_1_knife2-car3.png,14.0,12,1
22,195,0.3674,bird,bird,1111_cc_hum_1_bird9-bear3.png,14.0,12,1
22,196,0.6337,elephant,elephant,1111_cc_hum_1_elephant2-bottle3.png,14.0,12,1
22,197,0.6506,bear,bear,1111_cc_hum_1_bear4-oven2.png,14.0,12,1
22,198,0.3505,bird,bird,1111_cc_hum_0_bird_40_n02033041_6633.JPEG,14.0,12,0
22,199,0.9167,airplane,airplane,1111_cc_hum_0_airplane_40_n02690373_4728.JPEG,14.0,12,0
22,200,0.3005,car,car,1111_cc_hum_0_car_40_n03100240_6954.JPEG,14.0,12,0
22,201,0.3771,keyboard,keyboard,1111_cc_hum_0_keyboard_40_n03085013_2122.JPEG,14.0,9,0
22,202,1.267,dog,dog,1111_cc_hum_0_dog_40_n02110806_16707.JPEG,14.0,9,0
22,203,0.667,boat,boat,1111_cc_hum_0_boat_40_n04273569_13091.JPEG,14.0,9,0
22,204,0.3665,elephant,elephant,1111_cc_hum_1_elephant7-knife2.png,14.0,9,1
22,205,0.3339,clock,clock,1111_cc_hum_1_clock8-airplane2.png,14.0,9,1
22,206,0.4007,keyboard,keyboard,1111_cc_hum_1_keyboard4-cat2.png,14.0,9,1
22,207,1.0501,elephant,elephant,1111_cc_hum_1_elephant7-keyboard3.png,14.0,9,1
22,208,0.6005,chair,chair,1111_cc_hum_0_chair_40_n04429376_18127.JPEG,14.0,9,0
22,209,1.967,airplane,airplane,1111_cc_hum_1_airplane1-chair2.png,14.0,9,1
22,210,0.5337,knife,knife,1111_cc_hum_0_knife_40_n03041632_26340.JPEG,14.0,9,0
22,211,1.5668,bird,bird,1111_cc_hum_1_bird10-elephant2.png,14.0,9,1
22,212,0.9507,keyboard,keyboard,1111_cc_hum_1_keyboard9-truck3.png,14.0,9,1
22,213,0.7669,elephant,elephant,1111_cc_hum_1_elephant4-oven1.png,14.0,9,1
22,214,2.2336,chair,chair,1111_cc_hum_1_chair5-cat3.png,14.0,9,1
22,215,0.467,bird,bird,1111_cc_hum_1_bird6-car3.png,14.0,9,1
22,216,0.7502,bicycle,bicycle,1111_cc_hum_1_bicycle3-elephant2.png,14.0,9,1
22,217,0.4502,bear,bear,1111_cc_hum_1_bear9-knife2.png,14.0,9,1
22,218,1.4669,clock,clock,1111_cc_hum_0_clock_40_n03196217_5478.JPEG,14.0,9,0
22,219,0.3671,bottle,bottle,1111_cc_hum_0_bottle_40_n04579145_1302.JPEG,14.0,9,0
22,220,1.0338,knife,knife,1111_cc_hum_0_knife_40_n03041632_21723.JPEG,14.0,9,0
58,1,0.234,dog,dog,1111_cc_hum_0_dog_40_n02101388_2075.JPEG,15.0,1,0
58,2,1.867,oven,oven,1111_cc_hum_0_oven_40_n04111531_23215.JPEG,15.0,1,0
58,3,0.4174,car,car,1111_cc_hum_0_car_40_n03100240_6805.JPEG,15.0,1,0
58,4,7.9993,clock,clock,1111_cc_hum_0_clock_40_n04548280_2518.JPEG,15.0,1,0
58,5,0.7172,bear,bear,1111_cc_hum_1_bear8-elephant2.png,15.0,1,1
58,6,0.3672,bear,bear,1111_cc_hum_1_bear8-bottle1.png,15.0,1,1
58,7,0.4172,cat,cat,1111_cc_hum_1_cat5-airplane2.png,15.0,1,1
58,8,3.9664,bottle,boat,1111_cc_hum_1_boat7-cat3.png,15.0,1,1
58,9,0.5342,truck,truck,1111_cc_hum_1_truck5-car1.png,15.0,1,1
58,10,0.8835,car,knife,1111_cc_hum_1_knife7-car2.png,15.0,1,1
58,11,0.3673,cat,cat,1111_cc_hum_0_cat_40_n02123045_8774.JPEG,15.0,1,0
58,12,11.3991,chair,knife,1111_cc_hum_1_knife10-chair1.png,15.0,1,1
58,13,0.3505,car,car,1111_cc_hum_1_car10-bicycle2.png,15.0,1,1
58,14,0.3174,cat,cat,1111_cc_hum_1_cat5-elephant2.png,15.0,1,1
58,15,0.6338,elephant,elephant,1111_cc_hum_1_elephant8-dog1.png,15.0,1,1
58,16,0.5671,airplane,airplane,1111_cc_hum_1_airplane1-clock1.png,15.0,1,1
58,17,0.4339,keyboard,keyboard,1111_cc_hum_1_keyboard6-bicycle1.png,15.0,1,1
58,18,1.0671,boat,boat,1111_cc_hum_0_boat_40_n04612504_30742.JPEG,15.0,1,0
58,19,0.4504,keyboard,keyboard,1111_cc_hum_0_keyboard_40_n03085013_19436.JPEG,15.0,1,0
58,20,0.2838,boat,boat,1111_cc_hum_0_boat_40_n02951358_2853.JPEG,15.0,1,0
58,21,0.4004,chair,chair,1111_cc_hum_0_chair_40_n03376595_4469.JPEG,15.0,2,0
58,22,0.4836,truck,truck,1111_cc_hum_0_truck_40_n03417042_12133.JPEG,15.0,2,0
58,23,0.3505,car,car,1111_cc_hum_0_car_40_n04285008_3280.JPEG,15.0,2,0
58,24,0.3336,dog,dog,1111_cc_hum_1_dog6-clock1.png,15.0,2,1
58,25,6.1829,knife,airplane,1111_cc_hum_1_airplane4-elephant1.png,15.0,2,1
58,26,0.4006,bicycle,bicycle,1111_cc_hum_1_bicycle4-oven3.png,15.0,2,1
58,27,9.6325,bird,airplane,1111_cc_hum_1_airplane2-bear1.png,15.0,2,1
58,28,0.4504,clock,clock,1111_cc_hum_1_clock7-cat2.png,15.0,2,1
58,29,0.3504,bear,bear,1111_cc_hum_0_bear_40_n02134084_5027.JPEG,15.0,2,0
58,30,0.2507,bird,bird,1111_cc_hum_1_bird9-dog2.png,15.0,2,1
58,31,0.4503,knife,knife,1111_cc_hum_1_knife8-bicycle1.png,15.0,2,1
58,32,0.9174,truck,car,1111_cc_hum_1_car5-truck3.png,15.0,2,1
58,33,0.3504,chair,chair,1111_cc_hum_0_chair_40_n03376595_2566.JPEG,15.0,2,0
58,34,0.2173,car,car,1111_cc_hum_1_car8-chair1.png,15.0,2,1
58,35,7.6495,dog,airplane,1111_cc_hum_1_airplane2-dog1.png,15.0,2,1
58,36,0.2671,dog,dog,1111_cc_hum_1_dog1-bear1.png,15.0,2,1
58,37,0.3504,bicycle,bicycle,1111_cc_hum_1_bicycle3-bird1.png,15.0,2,1
58,38,0.5175,knife,knife,1111_cc_hum_0_knife_40_n03041632_24114.JPEG,15.0,2,0
58,39,1.3337,bottle,bottle,1111_cc_hum_0_bottle_40_n04560804_12278.JPEG,15.0,2,0
58,40,0.2504,elephant,elephant,1111_cc_hum_0_elephant_40_n02504013_1916.JPEG,15.0,2,0
58,41,0.1842,bear,bear,1111_cc_hum_0_bear_40_n02134084_2004.JPEG,15.0,3,0
58,42,6.1664,oven,oven,1111_cc_hum_0_oven_40_n04111531_1054.JPEG,15.0,3,0
58,43,0.667,dog,dog,1111_cc_hum_0_dog_40_n02088632_2814.JPEG,15.0,3,0
58,44,0.4173,bicycle,bicycle,1111_cc_hum_0_bicycle_40_n03792782_52601.JPEG,15.0,3,0
58,45,0.217,elephant,elephant,1111_cc_hum_1_elephant5-bottle2.png,15.0,3,1
58,46,0.4837,bottle,bottle,1111_cc_hum_1_bottle9-truck1.png,15.0,3,1
58,47,1.117,truck,truck,1111_cc_hum_1_truck2-boat3.png,15.0,3,1
58,48,0.7008,cat,cat,1111_cc_hum_0_cat_40_n02124075_9716.JPEG,15.0,3,0
58,49,0.6503,bird,bird,1111_cc_hum_1_bird1-oven1.png,15.0,3,1
58,50,0.3674,chair,chair,1111_cc_hum_1_chair9-boat2.png,15.0,3,1
58,51,0.5334,clock,clock,1111_cc_hum_1_clock9-cat1.png,15.0,3,1
58,52,0.2671,cat,cat,1111_cc_hum_1_cat1-airplane1.png,15.0,3,1
58,53,0.2503,chair,chair,1111_cc_hum_1_chair7-truck3.png,15.0,3,1
58,54,0.2839,car,car,1111_cc_hum_1_car4-boat1.png,15.0,3,1
58,55,0.1839,car,car,1111_cc_hum_1_car10-keyboard2.png,15.0,3,1
58,56,1.0504,elephant,elephant,1111_cc_hum_1_elephant2-bird1.png,15.0,3,1
58,57,0.3169,bicycle,bicycle,1111_cc_hum_1_bicycle1-clock3.png,15.0,3,1
58,58,1.0171,truck,truck,1111_cc_hum_0_truck_40_n03796401_4309.JPEG,15.0,3,0
58,59,0.3171,knife,knife,1111_cc_hum_0_knife_40_n03041632_24277.JPEG,15.0,3,0
58,60,0.3504,keyboard,keyboard,1111_cc_hum_0_keyboard_40_n04505470_933.JPEG,15.0,3,0
58,61,0.2337,bird,bird,1111_cc_hum_0_bird_40_n01530575_4260.JPEG,15.0,4,0
58,62,1.1502,clock,clock,1111_cc_hum_0_clock_40_n03196217_585.JPEG,15.0,4,0
58,63,0.2173,airplane,airplane,1111_cc_hum_0_airplane_40_n02690373_6853.JPEG,15.0,4,0
58,64,0.2342,elephant,elephant,1111_cc_hum_1_elephant10-knife3.png,15.0,4,1
58,65,0.3674,airplane,airplane,1111_cc_hum_0_airplane_40_n02690373_6999.JPEG,15.0,4,0
58,66,2.3834,cat,bear,1111_cc_hum_1_bear9-keyboard3.png,15.0,4,1
58,67,0.5506,clock,clock,1111_cc_hum_1_clock4-airplane1.png,15.0,4,1
58,68,0.3506,chair,chair,1111_cc_hum_1_chair4-oven2.png,15.0,4,1
58,69,0.4672,clock,clock,1111_cc_hum_1_clock6-chair3.png,15.0,4,1
58,70,0.3002,truck,truck,1111_cc_hum_1_truck2-bottle3.png,15.0,4,1
58,71,0.284,dog,dog,1111_cc_hum_1_dog5-bear3.png,15.0,4,1
58,72,1.0338,boat,boat,1111_cc_hum_1_boat6-car1.png,15.0,4,1
58,73,0.282,bicycle,bicycle,1111_cc_hum_0_bicycle_40_n03792782_14216.JPEG,15.0,4,0
58,74,0.3839,truck,truck,1111_cc_hum_1_truck1-knife1.png,15.0,4,1
58,75,5.3831,cat,boat,1111_cc_hum_1_boat7-keyboard3.png,15.0,4,1
58,76,0.2837,clock,clock,1111_cc_hum_1_clock2-knife1.png,15.0,4,1
58,77,0.3337,chair,chair,1111_cc_hum_1_chair10-bird3.png,15.0,4,1
58,78,2.8834,bird,bird,1111_cc_hum_0_bird_40_n02037110_11551.JPEG,15.0,4,0
58,79,0.2671,elephant,elephant,1111_cc_hum_0_elephant_40_n02504458_4954.JPEG,15.0,4,0
58,80,1.2504,bottle,bottle,1111_cc_hum_0_bottle_40_n04591713_2718.JPEG,15.0,4,0
58,81,0.8336,keyboard,keyboard,1111_cc_hum_0_keyboard_40_n03085013_17762.JPEG,15.0,7,0
58,82,0.1837,bicycle,bicycle,1111_cc_hum_0_bicycle_40_n03792782_33855.JPEG,15.0,7,0
58,83,0.7837,oven,oven,1111_cc_hum_0_oven_40_n04111531_10011.JPEG,15.0,7,0
58,84,0.3507,clock,clock,1111_cc_hum_1_clock3-car2.png,15.0,7,1
58,85,3.6167,cat,dog,1111_cc_hum_1_dog7-keyboard3.png,15.0,7,1
58,86,0.8006,bottle,bottle,1111_cc_hum_1_bottle3-chair3.png,15.0,7,1
58,87,0.5671,clock,clock,1111_cc_hum_1_clock1-bear1.png,15.0,7,1
58,88,0.2339,keyboard,keyboard,1111_cc_hum_1_keyboard9-airplane3.png,15.0,7,1
58,89,0.5172,clock,clock,1111_cc_hum_1_clock9-airplane1.png,15.0,7,1
58,90,0.8504,knife,knife,1111_cc_hum_1_knife2-dog1.png,15.0,7,1
58,91,0.4837,bird,bird,1111_cc_hum_0_bird_40_n01537544_2772.JPEG,15.0,7,0
58,92,5.8165,dog,cat,1111_cc_hum_0_cat_40_n02123159_2684.JPEG,15.0,7,0
58,93,0.5004,knife,knife,1111_cc_hum_1_knife6-oven3.png,15.0,7,1
58,94,0.5336,bicycle,bicycle,1111_cc_hum_1_bicycle10-boat3.png,15.0,7,1
58,95,0.3002,dog,dog,1111_cc_hum_1_dog1-boat3.png,15.0,7,1
58,96,0.6004,car,car,1111_cc_hum_1_car10-elephant2.png,15.0,7,1
58,97,0.2337,car,car,1111_cc_hum_1_car9-bicycle2.png,15.0,7,1
58,98,2.1502,bottle,bottle,1111_cc_hum_0_bottle_40_n03937543_2357.JPEG,15.0,7,0
58,99,0.4169,dog,dog,1111_cc_hum_0_dog_40_n02099712_5781.JPEG,15.0,7,0
58,100,0.6338,boat,boat,1111_cc_hum_0_boat_40_n02951358_5718.JPEG,15.0,7,0
58,101,0.3336,clock,clock,1111_cc_hum_0_clock_40_n04548280_1438.JPEG,15.0,8,0
58,102,0.4338,keyboard,keyboard,1111_cc_hum_0_keyboard_40_n04505470_2115.JPEG,15.0,8,0
58,103,0.8007,truck,truck,1111_cc_hum_0_truck_40_n03417042_28078.JPEG,15.0,8,0
58,104,0.267,car,car,1111_cc_hum_1_car2-knife3.png,15.0,8,1
58,105,0.8338,clock,oven,1111_cc_hum_1_oven3-bear2.png,15.0,8,1
58,106,0.3836,dog,dog,1111_cc_hum_1_dog1-bird1.png,15.0,8,1
58,107,0.7339,boat,boat,1111_cc_hum_1_boat7-bottle1.png,15.0,8,1
58,108,0.2336,car,car,1111_cc_hum_1_car8-bicycle2.png,15.0,8,1
58,109,1.2005,bear,bottle,1111_cc_hum_1_bottle7-bear1.png,15.0,8,1
58,110,0.2842,airplane,airplane,1111_cc_hum_0_airplane_40_n02690373_1071.JPEG,15.0,8,0
58,111,0.6839,keyboard,keyboard,1111_cc_hum_1_keyboard4-truck3.png,15.0,8,1
58,112,0.2669,bird,bird,1111_cc_hum_1_bird8-elephant1.png,15.0,8,1
58,113,0.1507,bottle,dog,1111_cc_hum_1_dog2-bottle2.png,15.0,8,1
58,114,0.6838,elephant,elephant,1111_cc_hum_1_elephant6-car3.png,15.0,8,1
58,115,4.1167,chair,chair,1111_cc_hum_1_chair8-keyboard3.png,15.0,8,1
58,116,0.4003,car,car,1111_cc_hum_1_car2-cat3.png,15.0,8,1
58,117,0.3005,car,car,1111_cc_hum_0_car_40_n02814533_82925.JPEG,15.0,8,0
58,118,1.3004,oven,oven,1111_cc_hum_0_oven_40_n04111531_7034.JPEG,15.0,8,0
58,119,0.8003,clock,clock,1111_cc_hum_0_clock_40_n03196217_5252.JPEG,15.0,8,0
58,120,0.3343,chair,chair,1111_cc_hum_0_chair_40_n04099969_2398.JPEG,15.0,8,0
58,121,0.6835,truck,truck,1111_cc_hum_0_truck_40_n03417042_14000.JPEG,15.0,5,0
58,122,0.3337,cat,cat,1111_cc_hum_0_cat_40_n02123045_964.JPEG,15.0,5,0
58,123,0.4507,boat,boat,1111_cc_hum_0_boat_40_n02951358_4826.JPEG,15.0,5,0
58,124,0.7669,knife,knife,1111_cc_hum_1_knife1-dog1.png,15.0,5,1
58,125,0.2504,elephant,elephant,1111_cc_hum_0_elephant_40_n02504458_1848.JPEG,15.0,5,0
58,126,0.2671,bicycle,bicycle,1111_cc_hum_0_bicycle_40_n02835271_276.JPEG,15.0,5,0
58,127,0.234,elephant,elephant,1111_cc_hum_1_elephant4-clock3.png,15.0,5,1
58,128,0.7168,oven,oven,1111_cc_hum_1_oven1-boat3.png,15.0,5,1
58,129,0.4505,keyboard,keyboard,1111_cc_hum_1_keyboard3-bicycle2.png,15.0,5,1
58,130,0.4838,truck,truck,1111_cc_hum_1_truck2-chair1.png,15.0,5,1
58,131,1.3837,truck,boat,1111_cc_hum_1_boat3-car3.png,15.0,5,1
58,132,1.1505,keyboard,airplane,1111_cc_hum_1_airplane6-chair3.png,15.0,5,1
58,133,0.9171,cat,cat,1111_cc_hum_1_cat10-bird2.png,15.0,5,1
58,134,0.517,bear,bear,1111_cc_hum_1_bear10-clock1.png,15.0,5,1
58,135,0.3504,bear,bear,1111_cc_hum_1_bear10-knife2.png,15.0,5,1
58,136,0.3675,cat,cat,1111_cc_hum_1_cat5-knife2.png,15.0,5,1
58,137,0.2172,elephant,elephant,1111_cc_hum_1_elephant8-clock2.png,15.0,5,1
58,138,0.4671,knife,knife,1111_cc_hum_0_knife_40_n03041632_14224.JPEG,15.0,5,0
58,139,0.6505,dog,dog,1111_cc_hum_0_dog_40_n02102318_11816.JPEG,15.0,5,0
58,140,0.2839,bear,bear,1111_cc_hum_0_bear_40_n02133161_2137.JPEG,15.0,5,0
58,141,0.3003,elephant,elephant,1111_cc_hum_0_elephant_40_n02504458_4336.JPEG,15.0,6,0
58,142,0.234,bird,bird,1111_cc_hum_0_bird_40_n01843383_8077.JPEG,15.0,6,0
58,143,0.2837,knife,knife,1111_cc_hum_0_knife_40_n03041632_11797.JPEG,15.0,6,0
58,144,0.2838,bear,bear,1111_cc_hum_1_bear8-dog1.png,15.0,6,1
58,145,0.5171,car,car,1111_cc_hum_0_car_40_n02814533_23512.JPEG,15.0,6,0
58,146,0.3836,cat,cat,1111_cc_hum_1_cat5-bottle1.png,15.0,6,1
58,147,0.4839,chair,chair,1111_cc_hum_1_chair10-airplane2.png,15.0,6,1
58,148,0.8169,bottle,bottle,1111_cc_hum_1_bottle3-cat3.png,15.0,6,1
58,149,0.1672,clock,clock,1111_cc_hum_1_clock3-cat1.png,15.0,6,1
58,150,0.2003,car,car,1111_cc_hum_1_car4-bird1.png,15.0,6,1
58,151,0.2004,chair,chair,1111_cc_hum_0_chair_40_n04429376_9212.JPEG,15.0,6,0
58,152,0.3172,dog,dog,1111_cc_hum_1_dog4-oven1.png,15.0,6,1
58,153,0.2335,elephant,elephant,1111_cc_hum_1_elephant3-keyboard2.png,15.0,6,1
58,154,0.1336,knife,knife,1111_cc_hum_1_knife1-elephant1.png,15.0,6,1
58,155,0.4002,bicycle,bicycle,1111_cc_hum_1_bicycle3-oven3.png,15.0,6,1
58,156,0.2504,chair,chair,1111_cc_hum_1_chair1-truck3.png,15.0,6,1
58,157,0.5503,bird,bird,1111_cc_hum_1_bird5-truck2.png,15.0,6,1
58,158,0.6506,bear,bear,1111_cc_hum_0_bear_40_n02134418_4041.JPEG,15.0,6,0
58,159,0.1337,airplane,airplane,1111_cc_hum_0_airplane_40_n02690373_8789.JPEG,15.0,6,0
58,160,0.4504,bottle,bottle,1111_cc_hum_0_bottle_40_n04591713_5754.JPEG,15.0,6,0
58,161,0.1343,car,car,1111_cc_hum_0_car_40_n02814533_32461.JPEG,15.0,10,0
58,162,0.3002,cat,cat,1111_cc_hum_0_cat_40_n02124075_8351.JPEG,15.0,10,0
58,163,0.6174,clock,clock,1111_cc_hum_0_clock_40_n03196217_3943.JPEG,15.0,10,0
58,164,0.3173,elephant,elephant,1111_cc_hum_1_elephant1-boat2.png,15.0,10,1
58,165,0.4338,oven,oven,1111_cc_hum_0_oven_40_n04111531_9712.JPEG,15.0,10,0
58,166,0.767,clock,clock,1111_cc_hum_1_clock3-bear3.png,15.0,10,1
58,167,0.2004,car,car,1111_cc_hum_1_car1-airplane1.png,15.0,10,1
58,168,0.6003,boat,boat,1111_cc_hum_1_boat9-bird1.png,15.0,10,1
58,169,1.7004,car,boat,1111_cc_hum_1_boat2-bird1.png,15.0,10,1
58,170,0.4507,dog,dog,1111_cc_hum_1_dog9-bottle1.png,15.0,10,1
58,171,0.8006,boat,boat,1111_cc_hum_1_boat3-airplane2.png,15.0,10,1
58,172,0.3671,bear,bear,1111_cc_hum_0_bear_40_n02134418_4895.JPEG,15.0,10,0
58,173,0.4007,keyboard,keyboard,1111_cc_hum_1_keyboard7-knife1.png,15.0,10,1
58,174,0.4341,bicycle,bicycle,1111_cc_hum_1_bicycle5-car3.png,15.0,10,1
58,175,0.2006,cat,cat,1111_cc_hum_1_cat5-dog3.png,15.0,10,1
58,176,2.5166,knife,boat,1111_cc_hum_1_boat6-dog1.png,15.0,10,1
58,177,1.2836,cat,airplane,1111_cc_hum_1_airplane8-bicycle3.png,15.0,10,1
58,178,0.617,chair,chair,1111_cc_hum_0_chair_40_n04429376_19101.JPEG,15.0,10,0
58,179,0.3006,elephant,elephant,1111_cc_hum_0_elephant_40_n02504458_4.JPEG,15.0,10,0
58,180,0.2837,airplane,airplane,1111_cc_hum_0_airplane_40_n02690373_19152.JPEG,15.0,10,0
58,181,0.1504,cat,cat,1111_cc_hum_0_cat_40_n02124075_14094.JPEG,15.0,11,0
58,182,0.7002,oven,oven,1111_cc_hum_0_oven_40_n04111531_9490.JPEG,15.0,11,0
58,183,0.8502,truck,truck,1111_cc_hum_0_truck_40_n03417042_19905.JPEG,15.0,11,0
58,184,0.1505,bicycle,bicycle,1111_cc_hum_0_bicycle_40_n03792782_692.JPEG,15.0,11,0
58,185,0.3338,truck,truck,1111_cc_hum_0_truck_40_n03417042_16389.JPEG,15.0,11,0
58,186,0.8337,keyboard,boat,1111_cc_hum_1_boat3-clock3.png,15.0,11,1
58,187,0.7005,bottle,bottle,1111_cc_hum_1_bottle9-keyboard1.png,15.0,11,1
58,188,0.6671,clock,clock,1111_cc_hum_1_clock1-boat3.png,15.0,11,1
58,189,1.4668,cat,bird,1111_cc_hum_1_bird8-keyboard2.png,15.0,11,1
58,190,0.6169,oven,oven,1111_cc_hum_1_oven2-truck3.png,15.0,11,1
58,191,0.4669,bicycle,bicycle,1111_cc_hum_1_bicycle9-chair1.png,15.0,11,1
58,192,0.2339,elephant,elephant,1111_cc_hum_1_elephant1-bottle1.png,15.0,11,1
58,193,0.3338,truck,truck,1111_cc_hum_1_truck10-bicycle1.png,15.0,11,1
58,194,0.4172,chair,chair,1111_cc_hum_1_chair5-bird1.png,15.0,11,1
58,195,0.4005,cat,cat,1111_cc_hum_1_cat5-chair3.png,15.0,11,1
58,196,0.7672,knife,knife,1111_cc_hum_1_knife6-boat3.png,15.0,11,1
58,197,1.567,airplane,airplane,1111_cc_hum_1_airplane5-bicycle1.png,15.0,11,1
58,198,0.3004,boat,boat,1111_cc_hum_0_boat_40_n04612504_8942.JPEG,15.0,11,0
58,199,0.5003,bicycle,bicycle,1111_cc_hum_0_bicycle_40_n03792782_3467.JPEG,15.0,11,0
58,200,0.3502,elephant,elephant,1111_cc_hum_0_elephant_40_n02504013_6660.JPEG,15.0,11,0
58,201,1.0838,keyboard,keyboard,1111_cc_hum_0_keyboard_40_n04505470_1430.JPEG,15.0,12,0
58,202,0.3003,airplane,airplane,1111_cc_hum_0_airplane_40_n02690373_4728.JPEG,15.0,12,0
58,203,0.2838,bird,bird,1111_cc_hum_0_bird_40_n02033041_6633.JPEG,15.0,12,0
58,204,0.3671,car,car,1111_cc_hum_0_car_40_n03100240_6954.JPEG,15.0,12,0
58,205,2.0669,bicycle,knife,1111_cc_hum_1_knife2-car3.png,15.0,12,1
58,206,0.8171,elephant,cat,1111_cc_hum_1_cat10-elephant3.png,15.0,12,1
58,207,0.534,bottle,keyboard,1111_cc_hum_1_keyboard10-oven3.png,15.0,12,1
58,208,0.6005,elephant,elephant,1111_cc_hum_1_elephant3-cat2.png,15.0,12,1
58,209,0.6006,bear,bear,1111_cc_hum_1_bear4-oven2.png,15.0,12,1
58,210,0.7505,bird,bird,1111_cc_hum_1_bird9-bear3.png,15.0,12,1
58,211,0.384,bicycle,bicycle,1111_cc_hum_1_bicycle1-dog3.png,15.0,12,1
58,212,0.1172,bicycle,bicycle,1111_cc_hum_1_bicycle7-clock3.png,15.0,12,1
58,213,0.4671,bottle,bottle,1111_cc_hum_0_bottle_40_n04560804_32398.JPEG,15.0,12,0
58,214,0.3005,knife,knife,1111_cc_hum_1_knife2-bear2.png,15.0,12,1
58,215,0.3005,bicycle,bicycle,1111_cc_hum_1_bicycle4-truck3.png,15.0,12,1
58,216,2.9835,bird,bird,1111_cc_hum_1_bird10-clock1.png,15.0,12,1
58,217,0.8835,elephant,elephant,1111_cc_hum_1_elephant2-bottle3.png,15.0,12,1
58,218,0.4005,bird,bird,1111_cc_hum_0_bird_40_n01532829_22520.JPEG,15.0,12,0
58,219,0.7838,bear,bear,1111_cc_hum_0_bear_40_n02132136_6787.JPEG,15.0,12,0
58,220,0.4171,dog,dog,1111_cc_hum_0_dog_40_n02108000_324.JPEG,15.0,12,0
58,221,0.2172,keyboard,keyboard,1111_cc_hum_0_keyboard_40_n03085013_2122.JPEG,15.0,9,0
58,222,0.1172,dog,dog,1111_cc_hum_0_dog_40_n02110806_16707.JPEG,15.0,9,0
58,223,0.1506,chair,chair,1111_cc_hum_0_chair_40_n04429376_18127.JPEG,15.0,9,0
58,224,0.2172,keyboard,keyboard,1111_cc_hum_1_keyboard9-truck3.png,15.0,9,1
58,225,0.3838,clock,clock,1111_cc_hum_0_clock_40_n03196217_5478.JPEG,15.0,9,0
58,226,0.5505,bird,bird,1111_cc_hum_1_bird6-car3.png,15.0,9,1
58,227,0.4004,bird,bird,1111_cc_hum_1_bird10-elephant2.png,15.0,9,1
58,228,0.2838,chair,chair,1111_cc_hum_1_chair5-cat3.png,15.0,9,1
58,229,0.3339,elephant,elephant,1111_cc_hum_1_elephant7-knife2.png,15.0,9,1
58,230,0.1675,bicycle,bicycle,1111_cc_hum_1_bicycle3-elephant2.png,15.0,9,1
58,231,1.2836,clock,clock,1111_cc_hum_1_clock8-airplane2.png,15.0,9,1
58,232,0.3505,bear,bear,1111_cc_hum_1_bear9-knife2.png,15.0,9,1
58,233,0.4839,airplane,airplane,1111_cc_hum_1_airplane1-chair2.png,15.0,9,1
58,234,0.5502,elephant,elephant,1111_cc_hum_1_elephant4-oven1.png,15.0,9,1
58,235,0.317,elephant,elephant,1111_cc_hum_1_elephant7-keyboard3.png,15.0,9,1
58,236,0.2671,keyboard,keyboard,1111_cc_hum_1_keyboard4-cat2.png,15.0,9,1
58,237,0.6336,boat,boat,1111_cc_hum_0_boat_40_n04273569_13091.JPEG,15.0,9,0
58,238,1.9503,bottle,knife,1111_cc_hum_0_knife_40_n03041632_21723.JPEG,15.0,9,0
58,239,0.4505,knife,knife,1111_cc_hum_0_knife_40_n03041632_26340.JPEG,15.0,9,0
58,240,0.5339,bottle,bottle,1111_cc_hum_0_bottle_40_n04579145_1302.JPEG,15.0,9,0
58,241,1.7171,oven,oven,1111_cc_hum_0_oven_40_n04111531_9844.JPEG,15.0,13,0
58,242,0.2171,chair,chair,1111_cc_hum_0_chair_40_n04099969_2267.JPEG,15.0,13,0
58,243,0.4173,truck,truck,1111_cc_hum_0_truck_40_n03417042_10043.JPEG,15.0,13,0
58,244,0.6004,clock,clock,1111_cc_hum_0_clock_40_n04548280_7490.JPEG,15.0,13,0
58,245,0.2175,truck,truck,1111_cc_hum_1_truck2-car3.png,15.0,13,1
58,246,0.2336,bicycle,car,1111_cc_hum_1_car1-chair3.png,15.0,13,1
58,247,0.4337,elephant,elephant,1111_cc_hum_1_elephant9-boat3.png,15.0,13,1
58,248,0.2504,chair,chair,1111_cc_hum_1_chair9-bird3.png,15.0,13,1
58,249,0.417,elephant,elephant,1111_cc_hum_1_elephant9-bicycle2.png,15.0,13,1
58,250,0.5837,dog,dog,1111_cc_hum_1_dog4-chair1.png,15.0,13,1
58,251,0.5003,bear,bear,1111_cc_hum_0_bear_40_n02132136_1934.JPEG,15.0,13,0
58,252,0.184,bird,bird,1111_cc_hum_1_bird6-airplane2.png,15.0,13,1
58,253,0.4005,chair,chair,1111_cc_hum_1_chair1-cat3.png,15.0,13,1
58,254,0.4839,clock,clock,1111_cc_hum_1_clock6-bird3.png,15.0,13,1
58,255,0.4005,truck,truck,1111_cc_hum_1_truck8-elephant1.png,15.0,13,1
58,256,0.6506,clock,clock,1111_cc_hum_1_clock9-chair3.png,15.0,13,1
58,257,0.967,bird,bird,1111_cc_hum_1_bird1-elephant2.png,15.0,13,1
58,258,0.7338,cat,cat,1111_cc_hum_0_cat_40_n02123394_2364.JPEG,15.0,13,0
58,259,0.6672,airplane,airplane,1111_cc_hum_0_airplane_40_n02690373_3874.JPEG,15.0,13,0
58,260,1.9503,oven,oven,1111_cc_hum_0_oven_40_n04111531_14611.JPEG,15.0,13,0
58,261,0.2508,boat,boat,1111_cc_hum_0_boat_40_n02951358_34441.JPEG,15.0,14,0
58,262,1.8671,bird,bird,1111_cc_hum_0_bird_40_n02007558_10725.JPEG,15.0,14,0
58,263,0.5502,bicycle,bicycle,1111_cc_hum_0_bicycle_40_n03792782_3047.JPEG,15.0,14,0
58,264,0.7002,keyboard,keyboard,1111_cc_hum_1_keyboard9-boat2.png,15.0,14,1
58,265,1.3005,chair,cat,1111_cc_hum_1_cat3-oven2.png,15.0,14,1
58,266,0.3004,keyboard,keyboard,1111_cc_hum_0_keyboard_40_n03085013_4160.JPEG,15.0,14,0
58,267,0.4505,truck,truck,1111_cc_hum_1_truck2-airplane3.png,15.0,14,1
58,268,0.7171,boat,boat,1111_cc_hum_1_boat5-car3.png,15.0,14,1
58,269,0.4171,car,car,1111_cc_hum_0_car_40_n04285008_9470.JPEG,15.0,14,0
58,270,0.4671,bottle,bottle,1111_cc_hum_1_bottle1-cat3.png,15.0,14,1
58,271,6.6994,knife,airplane,1111_cc_hum_1_airplane9-keyboard2.png,15.0,14,1
58,272,1.8504,oven,oven,1111_cc_hum_1_oven7-dog2.png,15.0,14,1
58,273,0.6836,truck,truck,1111_cc_hum_1_truck3-bicycle1.png,15.0,14,1
58,274,1.0835,keyboard,keyboard,1111_cc_hum_1_keyboard1-clock1.png,15.0,14,1
58,275,0.6838,keyboard,bear,1111_cc_hum_1_bear2-keyboard2.png,15.0,14,1
58,276,0.9671,elephant,bear,1111_cc_hum_1_bear6-clock1.png,15.0,14,1
58,277,0.1839,elephant,elephant,1111_cc_hum_1_elephant9-airplane2.png,15.0,14,1
58,278,0.2174,car,car,1111_cc_hum_0_car_40_n03100240_418.JPEG,15.0,14,0
58,279,0.3003,bicycle,bicycle,1111_cc_hum_0_bicycle_40_n03792782_17337.JPEG,15.0,14,0
58,280,0.2003,elephant,elephant,1111_cc_hum_0_elephant_40_n02504458_7013.JPEG,15.0,14,0
58,281,0.1667,bear,bear,1111_cc_hum_0_bear_40_n02134084_6343.JPEG,15.0,15,0
58,282,0.384,dog,dog,1111_cc_hum_0_dog_40_n02097130_1834.JPEG,15.0,15,0
58,283,0.4171,bottle,bottle,1111_cc_hum_0_bottle_40_n02823428_825.JPEG,15.0,15,0
58,284,0.2505,clock,clock,1111_cc_hum_1_clock6-knife2.png,15.0,15,1
58,285,2.0838,knife,knife,1111_cc_hum_0_knife_40_n03041632_4808.JPEG,15.0,15,0
58,286,0.2835,car,car,1111_cc_hum_1_car10-dog1.png,15.0,15,1
58,287,2.1335,knife,airplane,1111_cc_hum_1_airplane8-truck3.png,15.0,15,1
58,288,0.5337,boat,boat,1111_cc_hum_0_boat_40_n02951358_15424.JPEG,15.0,15,0
58,289,1.1503,bottle,boat,1111_cc_hum_1_boat2-oven3.png,15.0,15,1
58,290,1.3333,oven,oven,1111_cc_hum_1_oven6-knife3.png,15.0,15,1
58,291,0.2838,elephant,elephant,1111_cc_hum_1_elephant8-boat2.png,15.0,15,1
58,292,0.3671,cat,cat,1111_cc_hum_1_cat10-clock1.png,15.0,15,1
58,293,0.1839,car,car,1111_cc_hum_1_car5-knife2.png,15.0,15,1
58,294,0.1339,cat,cat,1111_cc_hum_1_cat2-bottle3.png,15.0,15,1
58,295,0.867,clock,clock,1111_cc_hum_1_clock1-truck3.png,15.0,15,1
58,296,0.517,car,dog,1111_cc_hum_1_dog9-car1.png,15.0,15,1
58,297,0.4507,bottle,knife,1111_cc_hum_1_knife9-bottle2.png,15.0,15,1
58,298,0.1339,elephant,elephant,1111_cc_hum_0_elephant_40_n02504013_8385.JPEG,15.0,15,0
58,299,0.3171,truck,truck,1111_cc_hum_0_truck_40_n04467665_50932.JPEG,15.0,15,0
58,300,0.2173,airplane,airplane,1111_cc_hum_0_airplane_40_n02690373_4243.JPEG,15.0,15,0
58,301,0.8671,chair,bottle,1111_cc_hum_0_bottle_40_n04560804_13773.JPEG,15.0,16,0
58,302,0.4504,dog,dog,1111_cc_hum_0_dog_40_n02112018_370.JPEG,15.0,16,0
58,303,0.5837,clock,clock,1111_cc_hum_0_clock_40_n03196217_6809.JPEG,15.0,16,0
58,304,1.0336,bottle,bottle,1111_cc_hum_1_bottle8-bicycle1.png,15.0,16,1
58,305,0.8674,bicycle,bicycle,1111_cc_hum_1_bicycle2-dog1.png,15.0,16,1
58,306,1.3337,bird,bird,1111_cc_hum_0_bird_40_n01601694_13334.JPEG,15.0,16,0
58,307,0.4175,truck,truck,1111_cc_hum_1_truck1-bear1.png,15.0,16,1
58,308,0.3341,car,car,1111_cc_hum_1_car4-bear3.png,15.0,16,1
58,309,0.5836,dog,dog,1111_cc_hum_1_dog4-bird1.png,15.0,16,1
58,310,0.3004,dog,dog,1111_cc_hum_1_dog3-bear3.png,15.0,16,1
58,311,0.1839,car,car,1111_cc_hum_1_car3-elephant3.png,15.0,16,1
58,312,0.184,truck,truck,1111_cc_hum_1_truck1-cat1.png,15.0,16,1
58,313,0.8004,knife,knife,1111_cc_hum_1_knife5-oven2.png,15.0,16,1
58,314,0.3337,chair,chair,1111_cc_hum_0_chair_40_n03376595_4309.JPEG,15.0,16,0
58,315,0.5342,bottle,keyboard,1111_cc_hum_1_keyboard6-bottle2.png,15.0,16,1
58,316,1.1338,chair,chair,1111_cc_hum_1_chair4-truck2.png,15.0,16,1
58,317,1.5838,oven,oven,1111_cc_hum_1_oven5-keyboard2.png,15.0,16,1
58,318,0.2336,cat,cat,1111_cc_hum_0_cat_40_n02123159_3330.JPEG,15.0,16,0
58,319,0.2339,keyboard,keyboard,1111_cc_hum_0_keyboard_40_n03085013_1483.JPEG,15.0,16,0
58,320,0.3171,knife,knife,1111_cc_hum_0_knife_40_n03041632_105081.JPEG,15.0,16,0
58,321,0.8336,elephant,elephant,1111_cc_hum_0_elephant_40_n02504013_19694.JPEG,15.0,17,0
58,322,1.0672,bear,bear,1111_cc_hum_0_bear_40_n02134418_703.JPEG,15.0,17,0
58,323,1.0173,bicycle,bicycle,1111_cc_hum_0_bicycle_40_n02835271_13131.JPEG,15.0,17,0
58,324,1.9336,knife,boat,1111_cc_hum_1_boat4-dog2.png,15.0,17,1
58,325,0.5172,knife,knife,1111_cc_hum_1_knife2-elephant2.png,15.0,17,1
58,326,0.3337,elephant,elephant,1111_cc_hum_0_elephant_40_n02504458_3140.JPEG,15.0,17,0
58,327,0.3337,clock,clock,1111_cc_hum_1_clock3-elephant3.png,15.0,17,1
58,328,1.3837,oven,oven,1111_cc_hum_1_oven6-truck1.png,15.0,17,1
58,329,0.284,knife,knife,1111_cc_hum_1_knife10-keyboard3.png,15.0,17,1
58,330,0.2005,car,car,1111_cc_hum_1_car2-bird3.png,15.0,17,1
58,331,0.5169,dog,dog,1111_cc_hum_1_dog10-keyboard2.png,15.0,17,1
58,332,1.1001,elephant,bear,1111_cc_hum_1_bear7-oven3.png,15.0,17,1
58,333,0.3505,bottle,bottle,1111_cc_hum_1_bottle3-knife3.png,15.0,17,1
58,334,0.5002,truck,truck,1111_cc_hum_1_truck2-bicycle2.png,15.0,17,1
58,335,0.3006,elephant,bear,1111_cc_hum_1_bear3-chair2.png,15.0,17,1
58,336,0.4504,dog,dog,1111_cc_hum_1_dog8-clock2.png,15.0,17,1
58,337,0.7004,bear,bear,1111_cc_hum_0_bear_40_n02134418_4886.JPEG,15.0,17,0
58,338,0.8503,dog,dog,1111_cc_hum_0_dog_40_n02106382_14862.JPEG,15.0,17,0
58,339,1.517,oven,oven,1111_cc_hum_0_oven_40_n04111531_11530.JPEG,15.0,17,0
58,340,0.5671,chair,chair,1111_cc_hum_0_chair_40_n04099969_18182.JPEG,15.0,17,0
58,341,0.7337,airplane,airplane,1111_cc_hum_0_airplane_40_n02690373_2024.JPEG,15.0,18,0
58,342,0.2505,airplane,airplane,1111_cc_hum_0_airplane_40_n02690373_2070.JPEG,15.0,18,0
58,343,2.5501,bird,bird,1111_cc_hum_0_bird_40_n02037110_8732.JPEG,15.0,18,0
58,344,0.5504,cat,cat,1111_cc_hum_1_cat9-bird3.png,15.0,18,1
58,345,0.7504,chair,chair,1111_cc_hum_1_chair8-knife2.png,15.0,18,1
58,346,0.4338,knife,knife,1111_cc_hum_1_knife9-bicycle1.png,15.0,18,1
58,347,0.4004,keyboard,keyboard,1111_cc_hum_1_keyboard8-oven1.png,15.0,18,1
58,348,0.7837,truck,truck,1111_cc_hum_1_truck3-bird2.png,15.0,18,1
58,349,0.8671,elephant,elephant,1111_cc_hum_1_elephant2-boat1.png,15.0,18,1
58,350,1.6172,bear,elephant,1111_cc_hum_1_elephant2-keyboard3.png,15.0,18,1
58,351,1.2506,oven,oven,1111_cc_hum_1_oven3-truck1.png,15.0,18,1
58,352,0.384,truck,truck,1111_cc_hum_0_truck_40_n03796401_15756.JPEG,15.0,18,0
58,353,0.4839,bottle,boat,1111_cc_hum_1_boat2-bottle2.png,15.0,18,1
58,354,2.117,cat,boat,1111_cc_hum_1_boat10-cat1.png,15.0,18,1
58,355,1.4335,knife,knife,1111_cc_hum_0_knife_40_n03041632_83826.JPEG,15.0,18,0
58,356,0.3005,truck,truck,1111_cc_hum_1_truck3-car3.png,15.0,18,1
58,357,0.1837,cat,cat,1111_cc_hum_1_cat1-car2.png,15.0,18,1
58,358,0.3672,bicycle,bicycle,1111_cc_hum_0_bicycle_40_n03792782_3631.JPEG,15.0,18,0
58,359,0.3671,clock,clock,1111_cc_hum_0_clock_40_n03196217_4417.JPEG,15.0,18,0
58,360,0.2174,knife,knife,1111_cc_hum_0_knife_40_n03041632_17338.JPEG,15.0,18,0
58,361,0.4167,truck,truck,1111_cc_hum_0_truck_40_n04467665_11776.JPEG,15.0,19,0
58,362,0.2838,bottle,bottle,1111_cc_hum_0_bottle_40_n04591713_6238.JPEG,15.0,19,0
58,363,0.4005,bottle,bottle,1111_cc_hum_0_bottle_40_n04560804_9813.JPEG,15.0,19,0
58,364,0.5002,elephant,elephant,1111_cc_hum_1_elephant8-cat1.png,15.0,19,1
58,365,0.2838,cat,cat,1111_cc_hum_1_cat1-dog1.png,15.0,19,1
58,366,1.0501,chair,knife,1111_cc_hum_1_knife7-chair2.png,15.0,19,1
58,367,0.3670000000000001,car,car,1111_cc_hum_1_car7-dog3.png,15.0,19,1
58,368,0.4336,airplane,airplane,1111_cc_hum_1_airplane3-elephant1.png,15.0,19,1
58,369,0.3171,airplane,airplane,1111_cc_hum_1_airplane8-clock2.png,15.0,19,1
58,370,2.8836,bear,bird,1111_cc_hum_1_bird2-airplane3.png,15.0,19,1
58,371,0.217,bottle,bottle,1111_cc_hum_1_bottle5-truck1.png,15.0,19,1
58,372,1.5668,oven,oven,1111_cc_hum_1_oven7-clock2.png,15.0,19,1
58,373,0.2173,bear,bear,1111_cc_hum_1_bear10-bottle1.png,15.0,19,1
58,374,0.467,bird,bird,1111_cc_hum_0_bird_40_n02025239_22501.JPEG,15.0,19,0
58,375,0.8505,oven,oven,1111_cc_hum_1_oven9-bear2.png,15.0,19,1
58,376,0.8004,chair,chair,1111_cc_hum_1_chair7-boat3.png,15.0,19,1
58,377,1.0502,oven,oven,1111_cc_hum_0_oven_40_n04111531_2371.JPEG,15.0,19,0
58,378,0.6837,boat,boat,1111_cc_hum_0_boat_40_n04612504_7166.JPEG,15.0,19,0
58,379,0.5339,cat,cat,1111_cc_hum_0_cat_40_n02124075_8754.JPEG,15.0,19,0
58,380,0.5005,dog,dog,1111_cc_hum_0_dog_40_n02113624_1203.JPEG,15.0,19,0
58,381,0.3837,car,car,1111_cc_hum_0_car_40_n04285008_2789.JPEG,15.0,20,0
58,382,0.6337,boat,boat,1111_cc_hum_0_boat_40_n03344393_302.JPEG,15.0,20,0
58,383,1.0684,keyboard,keyboard,1111_cc_hum_0_keyboard_40_n03085013_25181.JPEG,15.0,20,0
58,384,0.4838,clock,clock,1111_cc_hum_1_clock2-bear2.png,15.0,20,1
58,385,2.6168,chair,chair,1111_cc_hum_0_chair_40_n04099969_13056.JPEG,15.0,20,0
58,386,0.4339,car,car,1111_cc_hum_1_car8-cat1.png,15.0,20,1
58,387,0.5174,bottle,bottle,1111_cc_hum_1_bottle5-knife1.png,15.0,20,1
58,388,0.7505,bear,bear,1111_cc_hum_1_bear1-airplane3.png,15.0,20,1
58,389,0.3173,car,car,1111_cc_hum_0_car_40_n02814533_18458.JPEG,15.0,20,0
58,390,0.467,keyboard,keyboard,1111_cc_hum_1_keyboard9-bear2.png,15.0,20,1
58,391,0.2504,keyboard,keyboard,1111_cc_hum_1_keyboard1-airplane2.png,15.0,20,1
58,392,0.2171,bear,bear,1111_cc_hum_1_bear1-bicycle3.png,15.0,20,1
58,393,0.2835,bicycle,bicycle,1111_cc_hum_1_bicycle1-oven1.png,15.0,20,1
58,394,0.3505,car,car,1111_cc_hum_1_car6-chair3.png,15.0,20,1
58,395,0.2839,clock,clock,1111_cc_hum_1_clock4-boat3.png,15.0,20,1
58,396,0.4508,chair,chair,1111_cc_hum_1_chair10-bottle3.png,15.0,20,1
58,397,0.3003,elephant,elephant,1111_cc_hum_1_elephant1-car3.png,15.0,20,1
58,398,0.2996,keyboard,keyboard,1111_cc_hum_0_keyboard_40_n04505470_2570.JPEG,15.0,20,0
58,399,0.2004,cat,cat,1111_cc_hum_0_cat_40_n02123045_9341.JPEG,15.0,20,0
58,400,0.2172,clock,clock,1111_cc_hum_0_clock_40_n02708093_3459.JPEG,15.0,20,0
61,1,0.8502,car,keyboard,1111_cc_hum_0_keyboard_40_n03085013_19436.JPEG,14.0,1,0
61,2,0.8837,oven,oven,1111_cc_hum_0_oven_40_n04111531_23215.JPEG,14.0,1,0
61,3,0.5670000000000001,car,car,1111_cc_hum_0_car_40_n03100240_6805.JPEG,14.0,1,0
61,4,0.3505,bear,bear,1111_cc_hum_1_bear8-bottle1.png,14.0,1,1
61,5,0.317,car,car,1111_cc_hum_1_car10-bicycle2.png,14.0,1,1
61,6,0.5336,truck,truck,1111_cc_hum_1_truck5-car1.png,14.0,1,1
61,7,0.8170000000000001,boat,boat,1111_cc_hum_0_boat_40_n02951358_2853.JPEG,14.0,1,0
61,8,4.133,chair,cat,1111_cc_hum_1_cat5-airplane2.png,14.0,1,1
61,9,1.4169,cat,cat,1111_cc_hum_1_cat5-elephant2.png,14.0,1,1
61,10,0.7672,keyboard,keyboard,1111_cc_hum_1_keyboard6-bicycle1.png,14.0,1,1
61,11,0.7338,boat,boat,1111_cc_hum_0_boat_40_n04612504_30742.JPEG,14.0,1,0
61,12,0.6002,bear,bear,1111_cc_hum_1_bear8-elephant2.png,14.0,1,1
61,13,0.7005,car,knife,1111_cc_hum_1_knife7-car2.png,14.0,1,1
61,14,3.8836,bottle,boat,1111_cc_hum_1_boat7-cat3.png,14.0,1,1
61,15,0.7005,bear,elephant,1111_cc_hum_1_elephant8-dog1.png,14.0,1,1
61,16,3.5834,bird,airplane,1111_cc_hum_1_airplane1-clock1.png,14.0,1,1
61,17,1.917,keyboard,knife,1111_cc_hum_1_knife10-chair1.png,14.0,1,1
61,18,1.3168,clock,clock,1111_cc_hum_0_clock_40_n04548280_2518.JPEG,14.0,1,0
61,19,0.4503,cat,cat,1111_cc_hum_0_cat_40_n02123045_8774.JPEG,14.0,1,0
61,20,0.55,dog,dog,1111_cc_hum_0_dog_40_n02101388_2075.JPEG,14.0,1,0
61,21,0.2501,car,car,1111_cc_hum_0_car_40_n04285008_3280.JPEG,14.0,2,0
61,22,1.9002,bottle,bottle,1111_cc_hum_0_bottle_40_n04560804_12278.JPEG,14.0,2,0
61,23,0.6503,knife,knife,1111_cc_hum_0_knife_40_n03041632_24114.JPEG,14.0,2,0
61,24,0.4839,bear,bear,1111_cc_hum_0_bear_40_n02134084_5027.JPEG,14.0,2,0
61,25,0.317,dog,dog,1111_cc_hum_1_dog6-clock1.png,14.0,2,1
61,26,4.05,knife,airplane,1111_cc_hum_1_airplane4-elephant1.png,14.0,2,1
61,27,0.5503,bird,bird,1111_cc_hum_1_bird9-dog2.png,14.0,2,1
61,28,0.484,chair,chair,1111_cc_hum_0_chair_40_n03376595_4469.JPEG,14.0,2,0
61,29,0.4837,bicycle,bicycle,1111_cc_hum_1_bicycle4-oven3.png,14.0,2,1
61,30,0.3006,car,car,1111_cc_hum_1_car5-truck3.png,14.0,2,1
61,31,0.4506,car,car,1111_cc_hum_1_car8-chair1.png,14.0,2,1
61,32,0.4171,bicycle,bicycle,1111_cc_hum_1_bicycle3-bird1.png,14.0,2,1
61,33,0.8338,airplane,airplane,1111_cc_hum_1_airplane2-dog1.png,14.0,2,1
61,34,0.3506,clock,clock,1111_cc_hum_1_clock7-cat2.png,14.0,2,1
61,35,0.6502,keyboard,knife,1111_cc_hum_1_knife8-bicycle1.png,14.0,2,1
61,36,4.0666,cat,airplane,1111_cc_hum_1_airplane2-bear1.png,14.0,2,1
61,37,0.3508,dog,dog,1111_cc_hum_1_dog1-bear1.png,14.0,2,1
61,38,0.5337,chair,chair,1111_cc_hum_0_chair_40_n03376595_2566.JPEG,14.0,2,0
61,39,0.5669,elephant,elephant,1111_cc_hum_0_elephant_40_n02504013_1916.JPEG,14.0,2,0
61,40,0.617,truck,truck,1111_cc_hum_0_truck_40_n03417042_12133.JPEG,14.0,2,0
61,41,0.4837,keyboard,keyboard,1111_cc_hum_0_keyboard_40_n04505470_933.JPEG,14.0,3,0
61,42,0.317,bear,bear,1111_cc_hum_0_bear_40_n02134084_2004.JPEG,14.0,3,0
61,43,0.6668,knife,knife,1111_cc_hum_0_knife_40_n03041632_24277.JPEG,14.0,3,0
61,44,0.7336,elephant,elephant,1111_cc_hum_1_elephant5-bottle2.png,14.0,3,1
61,45,0.9002,bottle,bottle,1111_cc_hum_1_bottle9-truck1.png,14.0,3,1
61,46,0.1838,cat,cat,1111_cc_hum_1_cat1-airplane1.png,14.0,3,1
61,47,0.3003,car,car,1111_cc_hum_1_car10-keyboard2.png,14.0,3,1
61,48,0.3338,truck,truck,1111_cc_hum_1_truck2-boat3.png,14.0,3,1
61,49,0.3338,bicycle,bicycle,1111_cc_hum_0_bicycle_40_n03792782_52601.JPEG,14.0,3,0
61,50,1.3335,bear,elephant,1111_cc_hum_1_elephant2-bird1.png,14.0,3,1
61,51,0.3504,bicycle,bicycle,1111_cc_hum_1_bicycle1-clock3.png,14.0,3,1
61,52,0.2837,chair,chair,1111_cc_hum_1_chair7-truck3.png,14.0,3,1
61,53,0.3004,bird,bird,1111_cc_hum_1_bird1-oven1.png,14.0,3,1
61,54,0.5671,clock,clock,1111_cc_hum_1_clock9-cat1.png,14.0,3,1
61,55,0.5836,chair,chair,1111_cc_hum_1_chair9-boat2.png,14.0,3,1
61,56,0.2503,car,car,1111_cc_hum_1_car4-boat1.png,14.0,3,1
61,57,0.3339,dog,dog,1111_cc_hum_0_dog_40_n02088632_2814.JPEG,14.0,3,0
61,58,0.9003,oven,oven,1111_cc_hum_0_oven_40_n04111531_1054.JPEG,14.0,3,0
61,59,0.3171,truck,truck,1111_cc_hum_0_truck_40_n03796401_4309.JPEG,14.0,3,0
61,60,0.2672,cat,cat,1111_cc_hum_0_cat_40_n02124075_9716.JPEG,14.0,3,0
61,61,1.9337,clock,clock,1111_cc_hum_0_clock_40_n03196217_585.JPEG,14.0,4,0
61,62,0.4504,bird,bird,1111_cc_hum_0_bird_40_n01530575_4260.JPEG,14.0,4,0
61,63,0.5006,bicycle,bicycle,1111_cc_hum_0_bicycle_40_n03792782_14216.JPEG,14.0,4,0
61,64,2.9833,cat,elephant,1111_cc_hum_1_elephant10-knife3.png,14.0,4,1
61,65,0.4006,truck,truck,1111_cc_hum_1_truck1-knife1.png,14.0,4,1
61,66,1.4339,clock,clock,1111_cc_hum_1_clock6-chair3.png,14.0,4,1
61,67,0.7171,elephant,elephant,1111_cc_hum_0_elephant_40_n02504458_4954.JPEG,14.0,4,0
61,68,2.5168,bottle,boat,1111_cc_hum_1_boat7-keyboard3.png,14.0,4,1
61,69,0.8505,truck,truck,1111_cc_hum_1_truck2-bottle3.png,14.0,4,1
61,70,0.5837,boat,boat,1111_cc_hum_1_boat6-car1.png,14.0,4,1
61,71,0.3504,clock,clock,1111_cc_hum_1_clock4-airplane1.png,14.0,4,1
61,72,0.3339,clock,clock,1111_cc_hum_1_clock2-knife1.png,14.0,4,1
61,73,0.2337,chair,chair,1111_cc_hum_1_chair4-oven2.png,14.0,4,1
61,74,0.9006,chair,chair,1111_cc_hum_1_chair10-bird3.png,14.0,4,1
61,75,1.3337,chair,bear,1111_cc_hum_1_bear9-keyboard3.png,14.0,4,1
61,76,0.5004,bottle,bottle,1111_cc_hum_0_bottle_40_n04591713_2718.JPEG,14.0,4,0
61,77,0.4505,dog,dog,1111_cc_hum_1_dog5-bear3.png,14.0,4,1
61,78,0.2504,airplane,airplane,1111_cc_hum_0_airplane_40_n02690373_6999.JPEG,14.0,4,0
61,79,0.3005,airplane,airplane,1111_cc_hum_0_airplane_40_n02690373_6853.JPEG,14.0,4,0
61,80,0.4505,bird,bird,1111_cc_hum_0_bird_40_n02037110_11551.JPEG,14.0,4,0
61,81,0.6174,keyboard,keyboard,1111_cc_hum_0_keyboard_40_n03085013_17762.JPEG,14.0,7,0
61,82,0.4671,boat,boat,1111_cc_hum_0_boat_40_n02951358_5718.JPEG,14.0,7,0
61,83,0.3336,dog,dog,1111_cc_hum_0_dog_40_n02099712_5781.JPEG,14.0,7,0
61,84,0.2673,clock,clock,1111_cc_hum_1_clock3-car2.png,14.0,7,1
61,85,0.7004,bicycle,bicycle,1111_cc_hum_0_bicycle_40_n03792782_33855.JPEG,14.0,7,0
61,86,1.567,knife,knife,1111_cc_hum_1_knife2-dog1.png,14.0,7,1
61,87,0.4503,bicycle,bicycle,1111_cc_hum_1_bicycle10-boat3.png,14.0,7,1
61,88,0.4339,clock,clock,1111_cc_hum_1_clock1-bear1.png,14.0,7,1
61,89,4.2836,dog,dog,1111_cc_hum_1_dog7-keyboard3.png,14.0,7,1
61,90,0.384,knife,knife,1111_cc_hum_1_knife6-oven3.png,14.0,7,1
61,91,0.4506,car,car,1111_cc_hum_1_car10-elephant2.png,14.0,7,1
61,92,0.3003,car,car,1111_cc_hum_1_car9-bicycle2.png,14.0,7,1
61,93,1.4169999999999998,bottle,bottle,1111_cc_hum_0_bottle_40_n03937543_2357.JPEG,14.0,7,0
61,94,0.3504,clock,clock,1111_cc_hum_1_clock9-airplane1.png,14.0,7,1
61,95,0.8005,keyboard,keyboard,1111_cc_hum_1_keyboard9-airplane3.png,14.0,7,1
61,96,0.4505,bottle,bottle,1111_cc_hum_1_bottle3-chair3.png,14.0,7,1
61,97,0.5338,dog,dog,1111_cc_hum_1_dog1-boat3.png,14.0,7,1
61,98,0.6838,bird,bird,1111_cc_hum_0_bird_40_n01537544_2772.JPEG,14.0,7,0
61,99,1.7171,cat,cat,1111_cc_hum_0_cat_40_n02123159_2684.JPEG,14.0,7,0
61,100,0.6503,oven,oven,1111_cc_hum_0_oven_40_n04111531_10011.JPEG,14.0,7,0
61,101,0.3005,car,car,1111_cc_hum_0_car_40_n02814533_82925.JPEG,14.0,8,0
61,102,0.3671,chair,chair,1111_cc_hum_0_chair_40_n04099969_2398.JPEG,14.0,8,0
61,103,0.7168,oven,oven,1111_cc_hum_0_oven_40_n04111531_7034.JPEG,14.0,8,0
61,104,0.3504,car,car,1111_cc_hum_1_car2-knife3.png,14.0,8,1
61,105,0.5671,bottle,chair,1111_cc_hum_1_chair8-keyboard3.png,14.0,8,1
61,106,0.6504,bear,elephant,1111_cc_hum_1_elephant6-car3.png,14.0,8,1
61,107,0.5506,dog,dog,1111_cc_hum_1_dog1-bird1.png,14.0,8,1
61,108,1.3503,bottle,keyboard,1111_cc_hum_1_keyboard4-truck3.png,14.0,8,1
61,109,1.9167,cat,bottle,1111_cc_hum_1_bottle7-bear1.png,14.0,8,1
61,110,7.5497,keyboard,oven,1111_cc_hum_1_oven3-bear2.png,14.0,8,1
61,111,0.4837,bottle,dog,1111_cc_hum_1_dog2-bottle2.png,14.0,8,1
61,112,0.5672,car,car,1111_cc_hum_1_car2-cat3.png,14.0,8,1
61,113,1.2336,bird,bird,1111_cc_hum_1_bird8-elephant1.png,14.0,8,1
61,114,0.7505,keyboard,keyboard,1111_cc_hum_0_keyboard_40_n04505470_2115.JPEG,14.0,8,0
61,115,0.3504,car,car,1111_cc_hum_1_car8-bicycle2.png,14.0,8,1
61,116,1.117,bottle,boat,1111_cc_hum_1_boat7-bottle1.png,14.0,8,1
61,117,1.5004,truck,truck,1111_cc_hum_0_truck_40_n03417042_28078.JPEG,14.0,8,0
61,118,0.4505,airplane,airplane,1111_cc_hum_0_airplane_40_n02690373_1071.JPEG,14.0,8,0
61,119,0.8171,clock,clock,1111_cc_hum_0_clock_40_n03196217_5252.JPEG,14.0,8,0
61,120,0.3004,clock,clock,1111_cc_hum_0_clock_40_n04548280_1438.JPEG,14.0,8,0
61,121,1.3002,truck,truck,1111_cc_hum_0_truck_40_n03417042_14000.JPEG,14.0,5,0
61,122,0.9505,bicycle,bicycle,1111_cc_hum_0_bicycle_40_n02835271_276.JPEG,14.0,5,0
61,123,0.3337,cat,cat,1111_cc_hum_0_cat_40_n02123045_964.JPEG,14.0,5,0
61,124,0.2839,cat,cat,1111_cc_hum_1_cat10-bird2.png,14.0,5,1
61,125,0.4673,cat,bear,1111_cc_hum_1_bear10-knife2.png,14.0,5,1
61,126,1.1502,knife,keyboard,1111_cc_hum_1_keyboard3-bicycle2.png,14.0,5,1
61,127,1.2833,truck,truck,1111_cc_hum_1_truck2-chair1.png,14.0,5,1
61,128,1.2003,knife,knife,1111_cc_hum_1_knife1-dog1.png,14.0,5,1
61,129,2.1503,oven,oven,1111_cc_hum_1_oven1-boat3.png,14.0,5,1
61,130,0.3673,elephant,elephant,1111_cc_hum_0_elephant_40_n02504458_1848.JPEG,14.0,5,0
61,131,0.4339,elephant,elephant,1111_cc_hum_1_elephant4-clock3.png,14.0,5,1
61,132,1.0337,keyboard,boat,1111_cc_hum_1_boat3-car3.png,14.0,5,1
61,133,2.6503,knife,airplane,1111_cc_hum_1_airplane6-chair3.png,14.0,5,1
61,134,2.7169,cat,bear,1111_cc_hum_1_bear10-clock1.png,14.0,5,1
61,135,0.5505,elephant,elephant,1111_cc_hum_1_elephant8-clock2.png,14.0,5,1
61,136,4.8163,chair,cat,1111_cc_hum_1_cat5-knife2.png,14.0,5,1
61,137,0.3670000000000001,bear,bear,1111_cc_hum_0_bear_40_n02133161_2137.JPEG,14.0,5,0
61,138,2.2003,cat,dog,1111_cc_hum_0_dog_40_n02102318_11816.JPEG,14.0,5,0
61,139,0.467,knife,knife,1111_cc_hum_0_knife_40_n03041632_14224.JPEG,14.0,5,0
61,140,0.5835,boat,boat,1111_cc_hum_0_boat_40_n02951358_4826.JPEG,14.0,5,0
61,141,0.6001,airplane,airplane,1111_cc_hum_0_airplane_40_n02690373_8789.JPEG,14.0,6,0
61,142,0.217,car,car,1111_cc_hum_0_car_40_n02814533_23512.JPEG,14.0,6,0
61,143,0.4003,chair,chair,1111_cc_hum_0_chair_40_n04429376_9212.JPEG,14.0,6,0
61,144,0.5006,car,car,1111_cc_hum_1_car4-bird1.png,14.0,6,1
61,145,0.3171,knife,knife,1111_cc_hum_1_knife1-elephant1.png,14.0,6,1
61,146,1.067,elephant,elephant,1111_cc_hum_1_elephant3-keyboard2.png,14.0,6,1
61,147,0.4004,chair,chair,1111_cc_hum_1_chair1-truck3.png,14.0,6,1
61,148,0.5336,dog,dog,1111_cc_hum_1_dog4-oven1.png,14.0,6,1
61,149,0.4172,clock,clock,1111_cc_hum_1_clock3-cat1.png,14.0,6,1
61,150,0.2005,bottle,bottle,1111_cc_hum_1_bottle3-cat3.png,14.0,6,1
61,151,0.3171,bear,bear,1111_cc_hum_1_bear8-dog1.png,14.0,6,1
61,152,0.4005,bicycle,bicycle,1111_cc_hum_1_bicycle3-oven3.png,14.0,6,1
61,153,0.3005,chair,chair,1111_cc_hum_1_chair10-airplane2.png,14.0,6,1
61,154,0.2669,cat,cat,1111_cc_hum_1_cat5-bottle1.png,14.0,6,1
61,155,0.4505,bird,bird,1111_cc_hum_0_bird_40_n01843383_8077.JPEG,14.0,6,0
61,156,0.2673,bear,bear,1111_cc_hum_0_bear_40_n02134418_4041.JPEG,14.0,6,0
61,157,0.5505,bird,bird,1111_cc_hum_1_bird5-truck2.png,14.0,6,1
61,158,0.3338,knife,knife,1111_cc_hum_0_knife_40_n03041632_11797.JPEG,14.0,6,0
61,159,1.2336,elephant,elephant,1111_cc_hum_0_elephant_40_n02504458_4336.JPEG,14.0,6,0
61,160,0.6004,bottle,bottle,1111_cc_hum_0_bottle_40_n04591713_5754.JPEG,14.0,6,0
61,161,0.4673,cat,cat,1111_cc_hum_0_cat_40_n02124075_8351.JPEG,14.0,10,0
61,162,0.3337,airplane,airplane,1111_cc_hum_0_airplane_40_n02690373_19152.JPEG,14.0,10,0
61,163,0.3005,chair,chair,1111_cc_hum_0_chair_40_n04429376_19101.JPEG,14.0,10,0
61,164,1.1338,bottle,boat,1111_cc_hum_1_boat9-bird1.png,14.0,10,1
61,165,0.6504,cat,cat,1111_cc_hum_1_cat5-dog3.png,14.0,10,1
61,166,1.3834,clock,clock,1111_cc_hum_0_clock_40_n03196217_3943.JPEG,14.0,10,0
61,167,0.7005,car,car,1111_cc_hum_0_car_40_n02814533_32461.JPEG,14.0,10,0
61,168,0.6669,bottle,keyboard,1111_cc_hum_1_keyboard7-knife1.png,14.0,10,1
61,169,0.3173,elephant,elephant,1111_cc_hum_1_elephant1-boat2.png,14.0,10,1
61,170,0.7669,dog,dog,1111_cc_hum_1_dog9-bottle1.png,14.0,10,1
61,171,0.4336,clock,clock,1111_cc_hum_1_clock3-bear3.png,14.0,10,1
61,172,2.0002,boat,boat,1111_cc_hum_1_boat3-airplane2.png,14.0,10,1
61,173,1.5003,bird,boat,1111_cc_hum_1_boat6-dog1.png,14.0,10,1
61,174,0.7505,knife,boat,1111_cc_hum_1_boat2-bird1.png,14.0,10,1
61,175,0.4837,airplane,airplane,1111_cc_hum_1_airplane8-bicycle3.png,14.0,10,1
61,176,0.5507,bicycle,bicycle,1111_cc_hum_1_bicycle5-car3.png,14.0,10,1
61,177,0.2673,car,car,1111_cc_hum_1_car1-airplane1.png,14.0,10,1
61,178,0.5171,oven,oven,1111_cc_hum_0_oven_40_n04111531_9712.JPEG,14.0,10,0
61,179,2.2667,bottle,bear,1111_cc_hum_0_bear_40_n02134418_4895.JPEG,14.0,10,0
61,180,0.4837,elephant,elephant,1111_cc_hum_0_elephant_40_n02504458_4.JPEG,14.0,10,0
61,181,0.5337,truck,truck,1111_cc_hum_0_truck_40_n03417042_19905.JPEG,14.0,11,0
61,182,0.6671,oven,oven,1111_cc_hum_0_oven_40_n04111531_9490.JPEG,14.0,11,0
61,183,1.0172,truck,truck,1111_cc_hum_0_truck_40_n03417042_16389.JPEG,14.0,11,0
61,184,0.6341,oven,oven,1111_cc_hum_1_oven2-truck3.png,14.0,11,1
61,185,0.4503,clock,clock,1111_cc_hum_1_clock1-boat3.png,14.0,11,1
61,186,0.4505,chair,chair,1111_cc_hum_1_chair5-bird1.png,14.0,11,1
61,187,0.6504,chair,cat,1111_cc_hum_1_cat5-chair3.png,14.0,11,1
61,188,0.4671,chair,bird,1111_cc_hum_1_bird8-keyboard2.png,14.0,11,1
61,189,0.9338,truck,truck,1111_cc_hum_1_truck10-bicycle1.png,14.0,11,1
61,190,1.3504,boat,boat,1111_cc_hum_1_boat3-clock3.png,14.0,11,1
61,191,0.6168,bicycle,bicycle,1111_cc_hum_1_bicycle9-chair1.png,14.0,11,1
61,192,0.3172,elephant,elephant,1111_cc_hum_1_elephant1-bottle1.png,14.0,11,1
61,193,0.2505,elephant,elephant,1111_cc_hum_0_elephant_40_n02504013_6660.JPEG,14.0,11,0
61,194,0.4671,bicycle,bicycle,1111_cc_hum_0_bicycle_40_n03792782_3467.JPEG,14.0,11,0
61,195,0.7837,knife,knife,1111_cc_hum_1_knife6-boat3.png,14.0,11,1
61,196,8.0831,bottle,airplane,1111_cc_hum_1_airplane5-bicycle1.png,14.0,11,1
61,197,0.3343,bottle,bottle,1111_cc_hum_1_bottle9-keyboard1.png,14.0,11,1
61,198,0.2671,bicycle,bicycle,1111_cc_hum_0_bicycle_40_n03792782_692.JPEG,14.0,11,0
61,199,0.4005,boat,boat,1111_cc_hum_0_boat_40_n04612504_8942.JPEG,14.0,11,0
61,200,0.1671,cat,cat,1111_cc_hum_0_cat_40_n02124075_14094.JPEG,14.0,11,0
61,201,0.3503,dog,dog,1111_cc_hum_0_dog_40_n02108000_324.JPEG,14.0,12,0
61,202,0.4006,bird,bird,1111_cc_hum_0_bird_40_n01532829_22520.JPEG,14.0,12,0
61,203,1.0169,bottle,bottle,1111_cc_hum_0_bottle_40_n04560804_32398.JPEG,14.0,12,0
61,204,0.3005,elephant,elephant,1111_cc_hum_1_elephant2-bottle3.png,14.0,12,1
61,205,4.2666,clock,bear,1111_cc_hum_1_bear4-oven2.png,14.0,12,1
61,206,0.4337,bird,bird,1111_cc_hum_1_bird10-clock1.png,14.0,12,1
61,207,0.4169,bicycle,bicycle,1111_cc_hum_1_bicycle4-truck3.png,14.0,12,1
61,208,1.4672,keyboard,keyboard,1111_cc_hum_0_keyboard_40_n04505470_1430.JPEG,14.0,12,0
61,209,2.0505,knife,knife,1111_cc_hum_1_knife2-car3.png,14.0,12,1
61,210,0.3168,bicycle,bicycle,1111_cc_hum_1_bicycle7-clock3.png,14.0,12,1
61,211,0.5838,elephant,elephant,1111_cc_hum_1_elephant3-cat2.png,14.0,12,1
61,212,0.4504,bird,bird,1111_cc_hum_0_bird_40_n02033041_6633.JPEG,14.0,12,0
61,213,0.8003,knife,knife,1111_cc_hum_1_knife2-bear2.png,14.0,12,1
61,214,0.8671,bottle,keyboard,1111_cc_hum_1_keyboard10-oven3.png,14.0,12,1
61,215,4.0333,cat,cat,1111_cc_hum_1_cat10-elephant3.png,14.0,12,1
61,216,0.8341,bird,bird,1111_cc_hum_1_bird9-bear3.png,14.0,12,1
61,217,0.5003,bicycle,bicycle,1111_cc_hum_1_bicycle1-dog3.png,14.0,12,1
61,218,0.6839,car,car,1111_cc_hum_0_car_40_n03100240_6954.JPEG,14.0,12,0
61,219,0.6005,airplane,airplane,1111_cc_hum_0_airplane_40_n02690373_4728.JPEG,14.0,12,0
61,220,0.417,bear,bear,1111_cc_hum_0_bear_40_n02132136_6787.JPEG,14.0,12,0
61,221,1.6337,bottle,knife,1111_cc_hum_0_knife_40_n03041632_21723.JPEG,14.0,9,0
61,222,0.467,knife,knife,1111_cc_hum_0_knife_40_n03041632_26340.JPEG,14.0,9,0
61,223,0.3836,clock,clock,1111_cc_hum_0_clock_40_n03196217_5478.JPEG,14.0,9,0
61,224,0.5838,bird,bird,1111_cc_hum_1_bird6-car3.png,14.0,9,1
61,225,0.6837,bicycle,bicycle,1111_cc_hum_1_bicycle3-elephant2.png,14.0,9,1
61,226,2.2003,knife,elephant,1111_cc_hum_1_elephant7-keyboard3.png,14.0,9,1
61,227,0.8503,knife,keyboard,1111_cc_hum_1_keyboard4-cat2.png,14.0,9,1
61,228,0.5505,keyboard,keyboard,1111_cc_hum_0_keyboard_40_n03085013_2122.JPEG,14.0,9,0
61,229,1.7335,bottle,bottle,1111_cc_hum_0_bottle_40_n04579145_1302.JPEG,14.0,9,0
61,230,1.0835,bird,bird,1111_cc_hum_1_bird10-elephant2.png,14.0,9,1
61,231,0.5505,bear,bear,1111_cc_hum_1_bear9-knife2.png,14.0,9,1
61,232,0.7337,keyboard,keyboard,1111_cc_hum_1_keyboard9-truck3.png,14.0,9,1
61,233,0.8174,airplane,airplane,1111_cc_hum_1_airplane1-chair2.png,14.0,9,1
61,234,0.6504,elephant,elephant,1111_cc_hum_1_elephant7-knife2.png,14.0,9,1
61,235,0.6837,chair,chair,1111_cc_hum_1_chair5-cat3.png,14.0,9,1
61,236,0.4838,clock,clock,1111_cc_hum_1_clock8-airplane2.png,14.0,9,1
61,237,0.5339,elephant,elephant,1111_cc_hum_1_elephant4-oven1.png,14.0,9,1
61,238,0.6003,boat,boat,1111_cc_hum_0_boat_40_n04273569_13091.JPEG,14.0,9,0
61,239,0.8005,dog,dog,1111_cc_hum_0_dog_40_n02110806_16707.JPEG,14.0,9,0
61,240,0.4671,chair,chair,1111_cc_hum_0_chair_40_n04429376_18127.JPEG,14.0,9,0
61,241,0.1842,cat,cat,1111_cc_hum_0_cat_40_n02123394_2364.JPEG,14.0,13,0
61,242,0.5168,clock,clock,1111_cc_hum_0_clock_40_n04548280_7490.JPEG,14.0,13,0
61,243,0.4672,airplane,airplane,1111_cc_hum_0_airplane_40_n02690373_3874.JPEG,14.0,13,0
61,244,1.1338,bicycle,car,1111_cc_hum_1_car1-chair3.png,14.0,13,1
61,245,1.4169999999999998,elephant,elephant,1111_cc_hum_1_elephant9-bicycle2.png,14.0,13,1
61,246,1.0669,bird,bird,1111_cc_hum_1_bird1-elephant2.png,14.0,13,1
61,247,0.4,clock,clock,1111_cc_hum_1_clock9-chair3.png,14.0,13,1
61,248,0.3338,bird,bird,1111_cc_hum_1_bird6-airplane2.png,14.0,13,1
61,249,0.5172,elephant,elephant,1111_cc_hum_1_elephant9-boat3.png,14.0,13,1
61,250,0.6004,clock,clock,1111_cc_hum_1_clock6-bird3.png,14.0,13,1
61,251,0.8336,truck,truck,1111_cc_hum_1_truck2-car3.png,14.0,13,1
61,252,1.2008,dog,dog,1111_cc_hum_1_dog4-chair1.png,14.0,13,1
61,253,0.4502,truck,truck,1111_cc_hum_1_truck8-elephant1.png,14.0,13,1
61,254,0.5506,chair,chair,1111_cc_hum_1_chair1-cat3.png,14.0,13,1
61,255,0.6671,truck,truck,1111_cc_hum_0_truck_40_n03417042_10043.JPEG,14.0,13,0
61,256,0.6839,oven,oven,1111_cc_hum_0_oven_40_n04111531_14611.JPEG,14.0,13,0
61,257,0.8337,chair,chair,1111_cc_hum_1_chair9-bird3.png,14.0,13,1
61,258,0.6501,oven,oven,1111_cc_hum_0_oven_40_n04111531_9844.JPEG,14.0,13,0
61,259,0.2171,chair,chair,1111_cc_hum_0_chair_40_n04099969_2267.JPEG,14.0,13,0
61,260,0.3342,bear,bear,1111_cc_hum_0_bear_40_n02132136_1934.JPEG,14.0,13,0
61,261,0.9336,elephant,elephant,1111_cc_hum_0_elephant_40_n02504458_7013.JPEG,14.0,14,0
61,262,0.417,keyboard,keyboard,1111_cc_hum_0_keyboard_40_n03085013_4160.JPEG,14.0,14,0
61,263,0.4671,bicycle,bicycle,1111_cc_hum_0_bicycle_40_n03792782_17337.JPEG,14.0,14,0
61,264,0.3504,keyboard,keyboard,1111_cc_hum_1_keyboard9-boat2.png,14.0,14,1
61,265,0.8673,keyboard,keyboard,1111_cc_hum_1_keyboard1-clock1.png,14.0,14,1
61,266,0.7837,boat,boat,1111_cc_hum_1_boat5-car3.png,14.0,14,1
61,267,4.4001,knife,airplane,1111_cc_hum_1_airplane9-keyboard2.png,14.0,14,1
61,268,0.667,boat,boat,1111_cc_hum_0_boat_40_n02951358_34441.JPEG,14.0,14,0
61,269,0.5673,chair,oven,1111_cc_hum_1_oven7-dog2.png,14.0,14,1
61,270,0.5006,elephant,elephant,1111_cc_hum_1_elephant9-airplane2.png,14.0,14,1
61,271,1.517,truck,truck,1111_cc_hum_1_truck2-airplane3.png,14.0,14,1
61,272,1.6337,bird,bear,1111_cc_hum_1_bear2-keyboard2.png,14.0,14,1
61,273,4.2664,oven,bear,1111_cc_hum_1_bear6-clock1.png,14.0,14,1
61,274,0.7503,truck,truck,1111_cc_hum_1_truck3-bicycle1.png,14.0,14,1
61,275,1.3172,dog,cat,1111_cc_hum_1_cat3-oven2.png,14.0,14,1
61,276,0.5004,car,car,1111_cc_hum_0_car_40_n03100240_418.JPEG,14.0,14,0
61,277,0.7839,bottle,bottle,1111_cc_hum_1_bottle1-cat3.png,14.0,14,1
61,278,1.2003,bird,bird,1111_cc_hum_0_bird_40_n02007558_10725.JPEG,14.0,14,0
61,279,0.6669,bicycle,bicycle,1111_cc_hum_0_bicycle_40_n03792782_3047.JPEG,14.0,14,0
61,280,0.4673,car,car,1111_cc_hum_0_car_40_n04285008_9470.JPEG,14.0,14,0
61,281,15.1485,bear,dog,1111_cc_hum_0_dog_40_n02097130_1834.JPEG,14.0,15,0
61,282,0.5836,bear,bear,1111_cc_hum_0_bear_40_n02134084_6343.JPEG,14.0,15,0
61,283,1.0672,boat,boat,1111_cc_hum_0_boat_40_n02951358_15424.JPEG,14.0,15,0
61,284,0.5505,bottle,knife,1111_cc_hum_1_knife9-bottle2.png,14.0,15,1
61,285,0.4837,elephant,elephant,1111_cc_hum_0_elephant_40_n02504013_8385.JPEG,14.0,15,0
61,286,0.3005,bottle,bottle,1111_cc_hum_0_bottle_40_n02823428_825.JPEG,14.0,15,0
61,287,0.3338,car,car,1111_cc_hum_1_car10-dog1.png,14.0,15,1
61,288,0.1672,car,car,1111_cc_hum_1_car5-knife2.png,14.0,15,1
61,289,0.3836,cat,cat,1111_cc_hum_1_cat2-bottle3.png,14.0,15,1
61,290,0.917,bottle,clock,1111_cc_hum_1_clock1-truck3.png,14.0,15,1
61,291,1.167,knife,airplane,1111_cc_hum_1_airplane8-truck3.png,14.0,15,1
61,292,0.3506,clock,clock,1111_cc_hum_1_clock6-knife2.png,14.0,15,1
61,293,0.9669,bottle,boat,1111_cc_hum_1_boat2-oven3.png,14.0,15,1
61,294,0.9838,elephant,elephant,1111_cc_hum_1_elephant8-boat2.png,14.0,15,1
61,295,0.4005,cat,cat,1111_cc_hum_1_cat10-clock1.png,14.0,15,1
61,296,5.9510000000000005,bird,dog,1111_cc_hum_1_dog9-car1.png,14.0,15,1
61,297,1.6669999999999998,oven,oven,1111_cc_hum_1_oven6-knife3.png,14.0,15,1
61,298,0.7337,knife,knife,1111_cc_hum_0_knife_40_n03041632_4808.JPEG,14.0,15,0
61,299,0.4335,airplane,airplane,1111_cc_hum_0_airplane_40_n02690373_4243.JPEG,14.0,15,0
61,300,0.7502,truck,truck,1111_cc_hum_0_truck_40_n04467665_50932.JPEG,14.0,15,0
61,301,0.4172,keyboard,keyboard,1111_cc_hum_0_keyboard_40_n03085013_1483.JPEG,14.0,16,0
61,302,1.1171,clock,clock,1111_cc_hum_0_clock_40_n03196217_6809.JPEG,14.0,16,0
61,303,0.5002,knife,knife,1111_cc_hum_0_knife_40_n03041632_105081.JPEG,14.0,16,0
61,304,0.417,truck,truck,1111_cc_hum_1_truck1-bear1.png,14.0,16,1
61,305,0.517,chair,chair,1111_cc_hum_0_chair_40_n03376595_4309.JPEG,14.0,16,0
61,306,1.067,knife,knife,1111_cc_hum_1_knife5-oven2.png,14.0,16,1
61,307,1.317,bird,dog,1111_cc_hum_1_dog3-bear3.png,14.0,16,1
61,308,0.8837,dog,dog,1111_cc_hum_1_dog4-bird1.png,14.0,16,1
61,309,1.0004,clock,oven,1111_cc_hum_1_oven5-keyboard2.png,14.0,16,1
61,310,0.6004,bottle,bottle,1111_cc_hum_1_bottle8-bicycle1.png,14.0,16,1
61,311,0.7839,bicycle,bicycle,1111_cc_hum_1_bicycle2-dog1.png,14.0,16,1
61,312,0.4171,cat,cat,1111_cc_hum_0_cat_40_n02123159_3330.JPEG,14.0,16,0
61,313,0.3839,car,car,1111_cc_hum_1_car3-elephant3.png,14.0,16,1
61,314,0.3839,car,car,1111_cc_hum_1_car4-bear3.png,14.0,16,1
61,315,0.767,bottle,keyboard,1111_cc_hum_1_keyboard6-bottle2.png,14.0,16,1
61,316,2.0169,chair,chair,1111_cc_hum_1_chair4-truck2.png,14.0,16,1
61,317,0.6507,truck,truck,1111_cc_hum_1_truck1-cat1.png,14.0,16,1
61,318,1.1669,cat,dog,1111_cc_hum_0_dog_40_n02112018_370.JPEG,14.0,16,0
61,319,1.05,bird,bird,1111_cc_hum_0_bird_40_n01601694_13334.JPEG,14.0,16,0
61,320,1.4835,bottle,bottle,1111_cc_hum_0_bottle_40_n04560804_13773.JPEG,14.0,16,0
61,321,0.4505,elephant,elephant,1111_cc_hum_0_elephant_40_n02504013_19694.JPEG,14.0,17,0
61,322,0.3672,elephant,elephant,1111_cc_hum_0_elephant_40_n02504458_3140.JPEG,14.0,17,0
61,323,2.6338,bear,bear,1111_cc_hum_0_bear_40_n02134418_703.JPEG,14.0,17,0
61,324,0.9169,truck,truck,1111_cc_hum_1_truck2-bicycle2.png,14.0,17,1
61,325,0.5671,bottle,bottle,1111_cc_hum_1_bottle3-knife3.png,14.0,17,1
61,326,0.9837,knife,knife,1111_cc_hum_1_knife10-keyboard3.png,14.0,17,1
61,327,1.2503,bottle,bear,1111_cc_hum_1_bear7-oven3.png,14.0,17,1
61,328,1.1671,oven,oven,1111_cc_hum_1_oven6-truck1.png,14.0,17,1
61,329,0.917,dog,dog,1111_cc_hum_1_dog10-keyboard2.png,14.0,17,1
61,330,0.3005,clock,clock,1111_cc_hum_1_clock3-elephant3.png,14.0,17,1
61,331,0.234,chair,chair,1111_cc_hum_0_chair_40_n04099969_18182.JPEG,14.0,17,0
61,332,0.6838,knife,boat,1111_cc_hum_1_boat4-dog2.png,14.0,17,1
61,333,0.5006,bicycle,bicycle,1111_cc_hum_0_bicycle_40_n02835271_13131.JPEG,14.0,17,0
61,334,0.5005,dog,dog,1111_cc_hum_1_dog8-clock2.png,14.0,17,1
61,335,0.6836,bear,bear,1111_cc_hum_1_bear3-chair2.png,14.0,17,1
61,336,0.5672,knife,knife,1111_cc_hum_1_knife2-elephant2.png,14.0,17,1
61,337,0.5339,car,car,1111_cc_hum_1_car2-bird3.png,14.0,17,1
61,338,0.3674,bear,bear,1111_cc_hum_0_bear_40_n02134418_4886.JPEG,14.0,17,0
61,339,2.2502,oven,oven,1111_cc_hum_0_oven_40_n04111531_11530.JPEG,14.0,17,0
61,340,0.6504,dog,dog,1111_cc_hum_0_dog_40_n02106382_14862.JPEG,14.0,17,0
61,341,0.5005,knife,knife,1111_cc_hum_0_knife_40_n03041632_17338.JPEG,14.0,18,0
61,342,0.6504,knife,knife,1111_cc_hum_0_knife_40_n03041632_83826.JPEG,14.0,18,0
61,343,0.284,airplane,airplane,1111_cc_hum_0_airplane_40_n02690373_2070.JPEG,14.0,18,0
61,344,0.4172,knife,knife,1111_cc_hum_1_knife9-bicycle1.png,14.0,18,1
61,345,0.6342,bear,elephant,1111_cc_hum_1_elephant2-boat1.png,14.0,18,1
61,346,0.2839,bird,bird,1111_cc_hum_0_bird_40_n02037110_8732.JPEG,14.0,18,0
61,347,0.6336,chair,chair,1111_cc_hum_1_chair8-knife2.png,14.0,18,1
61,348,1.6671,boat,boat,1111_cc_hum_1_boat10-cat1.png,14.0,18,1
61,349,0.8336,oven,oven,1111_cc_hum_1_oven3-truck1.png,14.0,18,1
61,350,1.6,truck,truck,1111_cc_hum_1_truck3-car3.png,14.0,18,1
61,351,1.8845,knife,elephant,1111_cc_hum_1_elephant2-keyboard3.png,14.0,18,1
61,352,0.384,bicycle,bicycle,1111_cc_hum_0_bicycle_40_n03792782_3631.JPEG,14.0,18,0
61,353,0.3838,bottle,boat,1111_cc_hum_1_boat2-bottle2.png,14.0,18,1
61,354,0.4005,cat,cat,1111_cc_hum_1_cat1-car2.png,14.0,18,1
61,355,0.9505,truck,truck,1111_cc_hum_1_truck3-bird2.png,14.0,18,1
61,356,0.667,cat,cat,1111_cc_hum_1_cat9-bird3.png,14.0,18,1
61,357,0.8667,keyboard,keyboard,1111_cc_hum_1_keyboard8-oven1.png,14.0,18,1
61,358,0.4176,truck,truck,1111_cc_hum_0_truck_40_n03796401_15756.JPEG,14.0,18,0
61,359,0.5503,airplane,airplane,1111_cc_hum_0_airplane_40_n02690373_2024.JPEG,14.0,18,0
61,360,0.5004,clock,clock,1111_cc_hum_0_clock_40_n03196217_4417.JPEG,14.0,18,0
61,361,8.6498,oven,oven,1111_cc_hum_0_oven_40_n04111531_2371.JPEG,14.0,19,0
61,362,0.6337,dog,dog,1111_cc_hum_0_dog_40_n02113624_1203.JPEG,14.0,19,0
61,363,0.6339,truck,truck,1111_cc_hum_0_truck_40_n04467665_11776.JPEG,14.0,19,0
61,364,0.5838,bottle,bottle,1111_cc_hum_1_bottle5-truck1.png,14.0,19,1
61,365,0.3503,car,car,1111_cc_hum_1_car7-dog3.png,14.0,19,1
61,366,0.4505,airplane,airplane,1111_cc_hum_1_airplane3-elephant1.png,14.0,19,1
61,367,0.3670000000000001,bottle,bottle,1111_cc_hum_0_bottle_40_n04591713_6238.JPEG,14.0,19,0
61,368,5.2336,knife,airplane,1111_cc_hum_1_airplane8-clock2.png,14.0,19,1
61,369,0.3670000000000001,cat,cat,1111_cc_hum_1_cat1-dog1.png,14.0,19,1
61,370,0.3173,chair,chair,1111_cc_hum_1_chair7-boat3.png,14.0,19,1
61,371,2.3168,oven,oven,1111_cc_hum_1_oven9-bear2.png,14.0,19,1
61,372,1.4169,cat,bird,1111_cc_hum_1_bird2-airplane3.png,14.0,19,1
61,373,0.6838,dog,bear,1111_cc_hum_1_bear10-bottle1.png,14.0,19,1
61,374,3.0832,dog,elephant,1111_cc_hum_1_elephant8-cat1.png,14.0,19,1
61,375,0.6171,knife,knife,1111_cc_hum_1_knife7-chair2.png,14.0,19,1
61,376,0.8005,bird,bird,1111_cc_hum_0_bird_40_n02025239_22501.JPEG,14.0,19,0
61,377,1.2334,chair,oven,1111_cc_hum_1_oven7-clock2.png,14.0,19,1
61,378,0.9335,cat,cat,1111_cc_hum_0_cat_40_n02124075_8754.JPEG,14.0,19,0
61,379,0.6006,boat,boat,1111_cc_hum_0_boat_40_n04612504_7166.JPEG,14.0,19,0
61,380,0.5336,bottle,bottle,1111_cc_hum_0_bottle_40_n04560804_9813.JPEG,14.0,19,0
61,381,0.2339,clock,clock,1111_cc_hum_0_clock_40_n02708093_3459.JPEG,14.0,20,0
61,382,0.234,keyboard,keyboard,1111_cc_hum_0_keyboard_40_n04505470_2570.JPEG,14.0,20,0
61,383,0.4502,car,car,1111_cc_hum_0_car_40_n02814533_18458.JPEG,14.0,20,0
61,384,0.7338,boat,boat,1111_cc_hum_0_boat_40_n03344393_302.JPEG,14.0,20,0
61,385,0.8836,airplane,car,1111_cc_hum_1_car6-chair3.png,14.0,20,1
61,386,0.2671,car,car,1111_cc_hum_1_car8-cat1.png,14.0,20,1
61,387,0.4504,clock,clock,1111_cc_hum_1_clock4-boat3.png,14.0,20,1
61,388,1.8005,keyboard,keyboard,1111_cc_hum_1_keyboard9-bear2.png,14.0,20,1
61,389,0.5839,cat,cat,1111_cc_hum_0_cat_40_n02123045_9341.JPEG,14.0,20,0
61,390,0.2503,bottle,bottle,1111_cc_hum_1_bottle5-knife1.png,14.0,20,1
61,391,0.5004,clock,clock,1111_cc_hum_1_clock2-bear2.png,14.0,20,1
61,392,1.9669,chair,chair,1111_cc_hum_1_chair10-bottle3.png,14.0,20,1
61,393,0.7171,elephant,elephant,1111_cc_hum_1_elephant1-car3.png,14.0,20,1
61,394,5.1999,knife,keyboard,1111_cc_hum_1_keyboard1-airplane2.png,14.0,20,1
61,395,0.767,bear,bear,1111_cc_hum_1_bear1-airplane3.png,14.0,20,1
61,396,0.4507,bear,bear,1111_cc_hum_1_bear1-bicycle3.png,14.0,20,1
61,397,1.167,bicycle,bicycle,1111_cc_hum_1_bicycle1-oven1.png,14.0,20,1
61,398,0.3171,car,car,1111_cc_hum_0_car_40_n04285008_2789.JPEG,14.0,20,0
61,399,0.7336,keyboard,keyboard,1111_cc_hum_0_keyboard_40_n03085013_25181.JPEG,14.0,20,0
61,400,0.7005,chair,chair,1111_cc_hum_0_chair_40_n04099969_13056.JPEG,14.0,20,0
64,1,0.3506,cat,cat,1111_cc_hum_0_cat_40_n02123045_8774.JPEG,15.0,1,0
64,2,0.3339,boat,boat,1111_cc_hum_0_boat_40_n04612504_30742.JPEG,15.0,1,0
64,3,0.4836,keyboard,keyboard,1111_cc_hum_0_keyboard_40_n03085013_19436.JPEG,15.0,1,0
64,4,0.2335,keyboard,keyboard,1111_cc_hum_1_keyboard6-bicycle1.png,15.0,1,1
64,5,0.9674,cat,cat,1111_cc_hum_1_cat5-elephant2.png,15.0,1,1
64,6,3.85,bird,boat,1111_cc_hum_1_boat7-cat3.png,15.0,1,1
64,7,0.4168,car,car,1111_cc_hum_1_car10-bicycle2.png,15.0,1,1
64,8,0.517,airplane,airplane,1111_cc_hum_1_airplane1-clock1.png,15.0,1,1
64,9,0.2505,truck,truck,1111_cc_hum_1_truck5-car1.png,15.0,1,1
64,10,0.4505,bear,bear,1111_cc_hum_1_bear8-elephant2.png,15.0,1,1
64,11,0.4338,bear,bear,1111_cc_hum_1_bear8-bottle1.png,15.0,1,1
64,12,0.4668,clock,clock,1111_cc_hum_0_clock_40_n04548280_2518.JPEG,15.0,1,0
64,13,13.5152,knife,knife,1111_cc_hum_1_knife7-car2.png,15.0,1,1
64,14,15.5649,car,knife,1111_cc_hum_1_knife10-chair1.png,15.0,1,1
64,15,0.3336,dog,dog,1111_cc_hum_0_dog_40_n02101388_2075.JPEG,15.0,1,0
64,16,0.6172,bear,elephant,1111_cc_hum_1_elephant8-dog1.png,15.0,1,1
64,17,0.8337,cat,cat,1111_cc_hum_1_cat5-airplane2.png,15.0,1,1
64,18,0.5004,car,car,1111_cc_hum_0_car_40_n03100240_6805.JPEG,15.0,1,0
64,19,0.8005,boat,boat,1111_cc_hum_0_boat_40_n02951358_2853.JPEG,15.0,1,0
64,20,1.7338,oven,oven,1111_cc_hum_0_oven_40_n04111531_23215.JPEG,15.0,1,0
64,21,0.6837,chair,chair,1111_cc_hum_0_chair_40_n03376595_2566.JPEG,15.0,2,0
64,22,0.2503,chair,chair,1111_cc_hum_0_chair_40_n03376595_4469.JPEG,15.0,2,0
64,23,0.3677,truck,truck,1111_cc_hum_0_truck_40_n03417042_12133.JPEG,15.0,2,0
64,24,0.2674,car,car,1111_cc_hum_1_car5-truck3.png,15.0,2,1
64,25,0.5672,dog,dog,1111_cc_hum_1_dog1-bear1.png,15.0,2,1
64,26,2.4668,cat,airplane,1111_cc_hum_1_airplane2-dog1.png,15.0,2,1
64,27,0.7005,bicycle,bicycle,1111_cc_hum_1_bicycle3-bird1.png,15.0,2,1
64,28,0.3174,clock,clock,1111_cc_hum_1_clock7-cat2.png,15.0,2,1
64,29,0.5168,elephant,elephant,1111_cc_hum_0_elephant_40_n02504013_1916.JPEG,15.0,2,0
64,30,3.5664,elephant,airplane,1111_cc_hum_1_airplane4-elephant1.png,15.0,2,1
64,31,7.782999999999999,clock,knife,1111_cc_hum_1_knife8-bicycle1.png,15.0,2,1
64,32,0.5504,dog,dog,1111_cc_hum_1_dog6-clock1.png,15.0,2,1
64,33,0.6337,car,car,1111_cc_hum_1_car8-chair1.png,15.0,2,1
64,34,1.6839,bear,airplane,1111_cc_hum_1_airplane2-bear1.png,15.0,2,1
64,35,0.5507,bird,bird,1111_cc_hum_1_bird9-dog2.png,15.0,2,1
64,36,1.367,knife,knife,1111_cc_hum_0_knife_40_n03041632_24114.JPEG,15.0,2,0
64,37,0.4171,bicycle,bicycle,1111_cc_hum_1_bicycle4-oven3.png,15.0,2,1
64,38,2.8336,bottle,bottle,1111_cc_hum_0_bottle_40_n04560804_12278.JPEG,15.0,2,0
64,39,0.3506,car,car,1111_cc_hum_0_car_40_n04285008_3280.JPEG,15.0,2,0
64,40,0.3342,bear,bear,1111_cc_hum_0_bear_40_n02134084_5027.JPEG,15.0,2,0
64,41,0.6174,bear,bear,1111_cc_hum_0_bear_40_n02134084_2004.JPEG,15.0,3,0
64,42,1.7167,oven,oven,1111_cc_hum_0_oven_40_n04111531_1054.JPEG,15.0,3,0
64,43,0.5003,cat,cat,1111_cc_hum_0_cat_40_n02124075_9716.JPEG,15.0,3,0
64,44,0.9007,elephant,elephant,1111_cc_hum_1_elephant2-bird1.png,15.0,3,1
64,45,1.0001,bottle,bottle,1111_cc_hum_1_bottle9-truck1.png,15.0,3,1
64,46,0.5168,knife,knife,1111_cc_hum_0_knife_40_n03041632_24277.JPEG,15.0,3,0
64,47,0.5836,chair,chair,1111_cc_hum_1_chair7-truck3.png,15.0,3,1
64,48,0.8336,clock,clock,1111_cc_hum_1_clock9-cat1.png,15.0,3,1
