subj,trial,rt,object_response,category,imagename,age,block,difficulty
1,1,1.2168,keyboard,keyboard,1111_cc_hum_0_keyboard_40_n03085013_19436.JPEG,7.0,1.0,0
1,2,0.6505,dog,dog,1111_cc_hum_0_dog_40_n02101388_2075.JPEG,7.0,1.0,0
1,3,0.6669,cat,cat,1111_cc_hum_0_cat_40_n02123045_8774.JPEG,7.0,1.0,0
1,4,0.7674,boat,boat,1111_cc_hum_0_boat_40_n04612504_30742.JPEG,7.0,1.0,0
1,5,19.4146,chair,knife,1111_cc_hum_1_knife10-chair1.png,7.0,1.0,1
1,6,1.3837,truck,truck,1111_cc_hum_1_truck5-car1.png,7.0,1.0,1
1,7,0.7337,bear,bear,1111_cc_hum_1_bear8-bottle1.png,7.0,1.0,1
1,8,2.7334,elephant,elephant,1111_cc_hum_1_elephant8-dog1.png,7.0,1.0,1
1,9,10.0492,dog,cat,1111_cc_hum_1_cat5-elephant2.png,7.0,1.0,1
1,10,0.8336,car,car,1111_cc_hum_1_car10-bicycle2.png,7.0,1.0,1
1,11,1.0174,airplane,airplane,1111_cc_hum_1_airplane1-clock1.png,7.0,1.0,1
1,12,0.9173,bear,bear,1111_cc_hum_1_bear8-elephant2.png,7.0,1.0,1
1,13,7.2663,bear,boat,1111_cc_hum_1_boat7-cat3.png,7.0,1.0,1
1,14,1.4505,car,knife,1111_cc_hum_1_knife7-car2.png,7.0,1.0,1
1,15,1.2838,keyboard,keyboard,1111_cc_hum_1_keyboard6-bicycle1.png,7.0,1.0,1
1,16,0.7669,car,car,1111_cc_hum_0_car_40_n03100240_6805.JPEG,7.0,1.0,0
1,17,1.084,car,cat,1111_cc_hum_1_cat5-airplane2.png,7.0,1.0,1
1,18,1.2005,boat,boat,1111_cc_hum_0_boat_40_n02951358_2853.JPEG,7.0,1.0,0
1,19,0.7839,clock,clock,1111_cc_hum_0_clock_40_n04548280_2518.JPEG,7.0,1.0,0
1,20,1.8001,oven,oven,1111_cc_hum_0_oven_40_n04111531_23215.JPEG,7.0,1.0,0
1,21,1.1008,bear,bear,1111_cc_hum_0_bear_40_n02134084_5027.JPEG,7.0,2.0,0
1,22,1.1006,chair,chair,1111_cc_hum_0_chair_40_n03376595_2566.JPEG,7.0,2.0,0
1,23,0.6335,chair,chair,1111_cc_hum_0_chair_40_n03376595_4469.JPEG,7.0,2.0,0
1,24,3.9,bear,airplane,1111_cc_hum_1_airplane2-dog1.png,7.0,2.0,1
1,25,0.7337,clock,clock,1111_cc_hum_1_clock7-cat2.png,7.0,2.0,1
1,26,1.9834,oven,knife,1111_cc_hum_1_knife8-bicycle1.png,7.0,2.0,1
1,27,1.1836,dog,dog,1111_cc_hum_1_dog1-bear1.png,7.0,2.0,1
1,28,16.8984,bottle,bottle,1111_cc_hum_0_bottle_40_n04560804_12278.JPEG,7.0,2.0,0
1,29,0.9668,car,car,1111_cc_hum_0_car_40_n04285008_3280.JPEG,7.0,2.0,0
1,30,1.5499,bird,bird,1111_cc_hum_1_bird9-dog2.png,7.0,2.0,1
1,31,3.4499,bear,airplane,1111_cc_hum_1_airplane2-bear1.png,7.0,2.0,1
1,32,0.9339,bicycle,bicycle,1111_cc_hum_1_bicycle3-bird1.png,7.0,2.0,1
1,33,0.6838,bicycle,bicycle,1111_cc_hum_1_bicycle4-oven3.png,7.0,2.0,1
1,34,8.3494,knife,airplane,1111_cc_hum_1_airplane4-elephant1.png,7.0,2.0,1
1,35,0.9999,car,car,1111_cc_hum_1_car5-truck3.png,7.0,2.0,1
1,36,0.8505,dog,dog,1111_cc_hum_1_dog6-clock1.png,7.0,2.0,1
1,37,1.2337,car,car,1111_cc_hum_1_car8-chair1.png,7.0,2.0,1
1,38,1.4669,truck,truck,1111_cc_hum_0_truck_40_n03417042_12133.JPEG,7.0,2.0,0
1,39,2.668,oven,knife,1111_cc_hum_0_knife_40_n03041632_24114.JPEG,7.0,2.0,0
1,40,1.0504,elephant,elephant,1111_cc_hum_0_elephant_40_n02504013_1916.JPEG,7.0,2.0,0
1,41,0.4672,cat,cat,1111_cc_hum_0_cat_40_n02124075_9716.JPEG,7.0,3.0,0
1,42,0.5334,bicycle,bicycle,1111_cc_hum_0_bicycle_40_n03792782_52601.JPEG,7.0,3.0,0
1,43,0.4838,dog,dog,1111_cc_hum_0_dog_40_n02088632_2814.JPEG,7.0,3.0,0
1,44,0.9005,car,car,1111_cc_hum_1_car4-boat1.png,7.0,3.0,1
1,45,0.6338,elephant,elephant,1111_cc_hum_1_elephant2-bird1.png,7.0,3.0,1
1,46,0.6173,chair,chair,1111_cc_hum_1_chair7-truck3.png,7.0,3.0,1
1,47,0.5169,bicycle,bicycle,1111_cc_hum_1_bicycle1-clock3.png,7.0,3.0,1
1,48,1.0668,truck,truck,1111_cc_hum_0_truck_40_n03796401_4309.JPEG,7.0,3.0,0
1,49,0.7004,elephant,elephant,1111_cc_hum_1_elephant5-bottle2.png,7.0,3.0,1
1,50,0.6671,cat,cat,1111_cc_hum_1_cat1-airplane1.png,7.0,3.0,1
1,51,0.8171,bird,bird,1111_cc_hum_1_bird1-oven1.png,7.0,3.0,1
1,52,0.6501,chair,chair,1111_cc_hum_1_chair9-boat2.png,7.0,3.0,1
1,53,1.0003,keyboard,keyboard,1111_cc_hum_0_keyboard_40_n04505470_933.JPEG,7.0,3.0,0
1,54,0.9004,car,car,1111_cc_hum_1_car10-keyboard2.png,7.0,3.0,1
1,55,1.817,clock,clock,1111_cc_hum_1_clock9-cat1.png,7.0,3.0,1
1,56,3.4834,car,truck,1111_cc_hum_1_truck2-boat3.png,7.0,3.0,1
1,57,0.9337,bottle,bottle,1111_cc_hum_1_bottle9-truck1.png,7.0,3.0,1
1,58,2.1339,oven,oven,1111_cc_hum_0_oven_40_n04111531_1054.JPEG,7.0,3.0,0
1,59,0.7838,knife,knife,1111_cc_hum_0_knife_40_n03041632_24277.JPEG,7.0,3.0,0
1,60,0.5837,bear,bear,1111_cc_hum_0_bear_40_n02134084_2004.JPEG,7.0,3.0,0
1,61,1.5735,clock,clock,1111_cc_hum_0_clock_40_n03196217_585.JPEG,7.0,4.0,0
1,62,0.5672,bird,bird,1111_cc_hum_0_bird_40_n02037110_11551.JPEG,7.0,4.0,0
1,63,0.6169,elephant,elephant,1111_cc_hum_0_elephant_40_n02504458_4954.JPEG,7.0,4.0,0
1,64,0.7844,bear,bear,1111_cc_hum_1_bear9-keyboard3.png,7.0,4.0,1
1,65,0.6671,bicycle,bicycle,1111_cc_hum_0_bicycle_40_n03792782_14216.JPEG,7.0,4.0,0
1,66,1.1336,truck,truck,1111_cc_hum_1_truck1-knife1.png,7.0,4.0,1
1,67,0.7834,chair,chair,1111_cc_hum_1_chair4-oven2.png,7.0,4.0,1
1,68,0.7008,clock,clock,1111_cc_hum_1_clock4-airplane1.png,7.0,4.0,1
1,69,1.317,chair,chair,1111_cc_hum_1_chair10-bird3.png,7.0,4.0,1
1,70,0.9668,elephant,elephant,1111_cc_hum_1_elephant10-knife3.png,7.0,4.0,1
1,71,1.3668,dog,dog,1111_cc_hum_1_dog5-bear3.png,7.0,4.0,1
1,72,2.0837,knife,boat,1111_cc_hum_1_boat6-car1.png,7.0,4.0,1
1,73,5.15,bottle,boat,1111_cc_hum_1_boat7-keyboard3.png,7.0,4.0,1
1,74,0.7505,clock,clock,1111_cc_hum_1_clock2-knife1.png,7.0,4.0,1
1,75,2.7169,car,truck,1111_cc_hum_1_truck2-bottle3.png,7.0,4.0,1
1,76,0.8169,clock,clock,1111_cc_hum_1_clock6-chair3.png,7.0,4.0,1
1,77,2.2003,bottle,bottle,1111_cc_hum_0_bottle_40_n04591713_2718.JPEG,7.0,4.0,0
1,78,1.1837,bird,bird,1111_cc_hum_0_bird_40_n01530575_4260.JPEG,7.0,4.0,0
1,79,1.6,airplane,airplane,1111_cc_hum_0_airplane_40_n02690373_6853.JPEG,7.0,4.0,0
1,80,0.8004,airplane,airplane,1111_cc_hum_0_airplane_40_n02690373_6999.JPEG,7.0,4.0,0
1,81,1.4338,dog,dog,1111_cc_hum_0_dog_40_n02102318_11816.JPEG,7.0,5.0,0
1,82,1.8503,elephant,elephant,1111_cc_hum_0_elephant_40_n02504458_1848.JPEG,7.0,5.0,0
1,83,1.5171,truck,truck,1111_cc_hum_0_truck_40_n03417042_14000.JPEG,7.0,5.0,0
1,84,1.1171,boat,boat,1111_cc_hum_1_boat3-car3.png,7.0,5.0,1
1,85,1.5007,car,truck,1111_cc_hum_1_truck2-chair1.png,7.0,5.0,1
1,86,1.7668,knife,knife,1111_cc_hum_1_knife1-dog1.png,7.0,5.0,1
1,87,6.1829,knife,airplane,1111_cc_hum_1_airplane6-chair3.png,7.0,5.0,1
1,88,1.3171,cat,cat,1111_cc_hum_1_cat5-knife2.png,7.0,5.0,1
1,89,0.9004,bear,bear,1111_cc_hum_0_bear_40_n02133161_2137.JPEG,7.0,5.0,0
1,90,4.8831,bottle,keyboard,1111_cc_hum_1_keyboard3-bicycle2.png,7.0,5.0,1
1,91,1.1672,cat,cat,1111_cc_hum_1_cat10-bird2.png,7.0,5.0,1
1,92,10.4157,cat,bear,1111_cc_hum_1_bear10-clock1.png,7.0,5.0,1
1,93,0.8835,knife,knife,1111_cc_hum_0_knife_40_n03041632_14224.JPEG,7.0,5.0,0
1,94,1.0172,elephant,elephant,1111_cc_hum_1_elephant8-clock2.png,7.0,5.0,1
1,95,0.8172,elephant,elephant,1111_cc_hum_1_elephant4-clock3.png,7.0,5.0,1
1,96,3.8663,bear,bear,1111_cc_hum_1_bear10-knife2.png,7.0,5.0,1
1,97,1.0506,oven,oven,1111_cc_hum_1_oven1-boat3.png,7.0,5.0,1
1,98,0.8838,cat,cat,1111_cc_hum_0_cat_40_n02123045_964.JPEG,7.0,5.0,0
1,99,1.0669,bicycle,bicycle,1111_cc_hum_0_bicycle_40_n02835271_276.JPEG,7.0,5.0,0
1,100,1.0336,boat,boat,1111_cc_hum_0_boat_40_n02951358_4826.JPEG,7.0,5.0,0
7,1,2.0669999999999997,oven,oven,1111_cc_hum_0_oven_40_n04111531_23215.JPEG,7.0,1,0
7,2,5.1333,cat,cat,1111_cc_hum_0_cat_40_n02123045_8774.JPEG,7.0,1,0
7,3,0.8338,boat,boat,1111_cc_hum_0_boat_40_n04612504_30742.JPEG,7.0,1,0
7,4,5.2828,car,knife,1111_cc_hum_1_knife7-car2.png,7.0,1,1
7,5,4.2836,elephant,boat,1111_cc_hum_1_boat7-cat3.png,7.0,1,1
7,6,21.7641,elephant,cat,1111_cc_hum_1_cat5-elephant2.png,7.0,1,1
7,7,0.9507,clock,clock,1111_cc_hum_0_clock_40_n04548280_2518.JPEG,7.0,1,0
7,8,6.9329,clock,keyboard,1111_cc_hum_1_keyboard6-bicycle1.png,7.0,1,1
7,9,0.7001,dog,dog,1111_cc_hum_0_dog_40_n02101388_2075.JPEG,7.0,1,0
7,10,16.1982,boat,airplane,1111_cc_hum_1_airplane1-clock1.png,7.0,1,1
7,11,0.8339,bear,bear,1111_cc_hum_1_bear8-bottle1.png,7.0,1,1
7,12,3.5332,bear,elephant,1111_cc_hum_1_elephant8-dog1.png,7.0,1,1
7,13,23.4474,elephant,knife,1111_cc_hum_1_knife10-chair1.png,7.0,1,1
7,14,0.9502,bear,bear,1111_cc_hum_1_bear8-elephant2.png,7.0,1,1
7,15,0.8174,cat,cat,1111_cc_hum_1_cat5-airplane2.png,7.0,1,1
7,16,0.5841,car,car,1111_cc_hum_1_car10-bicycle2.png,7.0,1,1
7,17,0.9338,truck,truck,1111_cc_hum_1_truck5-car1.png,7.0,1,1
7,18,10.1325,oven,keyboard,1111_cc_hum_0_keyboard_40_n03085013_19436.JPEG,7.0,1,0
7,19,0.5335,car,car,1111_cc_hum_0_car_40_n03100240_6805.JPEG,7.0,1,0
7,20,0.6507,boat,boat,1111_cc_hum_0_boat_40_n02951358_2853.JPEG,7.0,1,0
7,21,0.7171,car,car,1111_cc_hum_0_car_40_n04285008_3280.JPEG,7.0,2,0
7,22,1.117,knife,knife,1111_cc_hum_0_knife_40_n03041632_24114.JPEG,7.0,2,0
7,23,1.0006,chair,chair,1111_cc_hum_0_chair_40_n03376595_4469.JPEG,7.0,2,0
7,24,1.3669,bear,bear,1111_cc_hum_0_bear_40_n02134084_5027.JPEG,7.0,2,0
7,25,5.0495,elephant,airplane,1111_cc_hum_1_airplane2-dog1.png,7.0,2,1
7,26,6.2331,car,knife,1111_cc_hum_1_knife8-bicycle1.png,7.0,2,1
7,27,0.6674,bicycle,bicycle,1111_cc_hum_1_bicycle4-oven3.png,7.0,2,1
7,28,0.7009,dog,dog,1111_cc_hum_1_dog1-bear1.png,7.0,2,1
7,29,0.517,clock,clock,1111_cc_hum_1_clock7-cat2.png,7.0,2,1
7,30,0.6505,dog,dog,1111_cc_hum_1_dog6-clock1.png,7.0,2,1
7,31,5.5832,oven,bottle,1111_cc_hum_0_bottle_40_n04560804_12278.JPEG,7.0,2,0
7,32,6.65,elephant,airplane,1111_cc_hum_1_airplane2-bear1.png,7.0,2,1
7,33,2.0171,elephant,airplane,1111_cc_hum_1_airplane4-elephant1.png,7.0,2,1
7,34,0.684,car,car,1111_cc_hum_1_car8-chair1.png,7.0,2,1
7,35,0.7339,bird,bird,1111_cc_hum_1_bird9-dog2.png,7.0,2,1
7,36,0.6507,car,car,1111_cc_hum_1_car5-truck3.png,7.0,2,1
7,37,0.8172,bicycle,bicycle,1111_cc_hum_1_bicycle3-bird1.png,7.0,2,1
7,38,0.5336,elephant,elephant,1111_cc_hum_0_elephant_40_n02504013_1916.JPEG,7.0,2,0
7,39,1.3835,chair,chair,1111_cc_hum_0_chair_40_n03376595_2566.JPEG,7.0,2,0
7,40,1.0505,truck,truck,1111_cc_hum_0_truck_40_n03417042_12133.JPEG,7.0,2,0
7,41,0.7337,bicycle,bicycle,1111_cc_hum_0_bicycle_40_n03792782_52601.JPEG,7.0,3,0
7,42,1.4337,knife,knife,1111_cc_hum_0_knife_40_n03041632_24277.JPEG,7.0,3,0
7,43,0.6006,truck,truck,1111_cc_hum_0_truck_40_n03796401_4309.JPEG,7.0,3,0
7,44,0.4669,car,car,1111_cc_hum_1_car4-boat1.png,7.0,3,1
7,45,0.7836,truck,truck,1111_cc_hum_1_truck2-boat3.png,7.0,3,1
7,46,3.2,clock,clock,1111_cc_hum_1_clock9-cat1.png,7.0,3,1
7,47,0.5506,dog,dog,1111_cc_hum_0_dog_40_n02088632_2814.JPEG,7.0,3,0
7,48,1.7169,bird,bird,1111_cc_hum_1_bird1-oven1.png,7.0,3,1
7,49,1.6839,car,car,1111_cc_hum_1_car10-keyboard2.png,7.0,3,1
7,50,1.0674,bottle,bottle,1111_cc_hum_1_bottle9-truck1.png,7.0,3,1
7,51,2.6669,oven,oven,1111_cc_hum_0_oven_40_n04111531_1054.JPEG,7.0,3,0
7,52,5.5997,truck,elephant,1111_cc_hum_1_elephant2-bird1.png,7.0,x,1
7,53,0.5836,bicycle,bicycle,1111_cc_hum_1_bicycle1-clock3.png,7.0,x,1
7,54,0.33399999999999996,chair,chair,1111_cc_hum_1_chair7-truck3.png,7.0,x,1
7,55,0.6837,cat,cat,1111_cc_hum_1_cat1-airplane1.png,7.0,x,1
7,56,0.7001,chair,chair,1111_cc_hum_1_chair9-boat2.png,7.0,x,1
7,57,0.6005,elephant,elephant,1111_cc_hum_1_elephant5-bottle2.png,7.0,x,1
7,58,1.6666,keyboard,keyboard,1111_cc_hum_0_keyboard_40_n04505470_933.JPEG,7.0,x,0
7,59,0.4171,bear,bear,1111_cc_hum_0_bear_40_n02134084_2004.JPEG,7.0,x,0
7,60,0.6337,cat,cat,1111_cc_hum_0_cat_40_n02124075_9716.JPEG,7.0,x,0
7,61,7.0495,bottle,bottle,1111_cc_hum_0_bottle_40_n04591713_2718.JPEG,7.0,4,0
7,62,0.9167,airplane,airplane,1111_cc_hum_0_airplane_40_n02690373_6999.JPEG,7.0,4,0
7,63,1.0001,bicycle,bicycle,1111_cc_hum_0_bicycle_40_n03792782_14216.JPEG,7.0,4,0
7,64,8.9327,clock,boat,1111_cc_hum_1_boat7-keyboard3.png,7.0,4,1
7,65,1.2171,bear,bear,1111_cc_hum_1_bear9-keyboard3.png,7.0,4,1
7,66,4.1331,car,boat,1111_cc_hum_1_boat6-car1.png,7.0,4,1
7,67,0.8336,truck,truck,1111_cc_hum_1_truck1-knife1.png,7.0,4,1
7,68,0.7669,dog,dog,1111_cc_hum_1_dog5-bear3.png,7.0,4,1
7,69,0.9675,clock,clock,1111_cc_hum_1_clock4-airplane1.png,7.0,4,1
7,70,1.6506,bird,bird,1111_cc_hum_0_bird_40_n02037110_11551.JPEG,7.0,4,0
7,71,0.6506,clock,clock,1111_cc_hum_1_clock2-knife1.png,7.0,4,1
7,72,0.634,chair,chair,1111_cc_hum_1_chair4-oven2.png,7.0,4,1
7,73,1.3839,clock,clock,1111_cc_hum_1_clock6-chair3.png,7.0,4,1
7,74,0.6168,bird,bird,1111_cc_hum_0_bird_40_n01530575_4260.JPEG,7.0,4,0
7,75,0.917,truck,truck,1111_cc_hum_1_truck2-bottle3.png,7.0,4,1
7,76,0.7668,chair,chair,1111_cc_hum_1_chair10-bird3.png,7.0,4,1
7,77,2.3499,bear,elephant,1111_cc_hum_1_elephant10-knife3.png,7.0,4,1
7,78,0.8338,airplane,airplane,1111_cc_hum_0_airplane_40_n02690373_6853.JPEG,7.0,4,0
7,79,1.0004,clock,clock,1111_cc_hum_0_clock_40_n03196217_585.JPEG,7.0,4,0
7,80,0.8507,elephant,elephant,1111_cc_hum_0_elephant_40_n02504458_4954.JPEG,7.0,4,0
25,1,1.2835,bicycle,bicycle,1111_cc_hum_0_bicycle_40_n03792782_52601.JPEG,8.0, 3,0
25,2,2.0836,truck,truck,1111_cc_hum_0_truck_40_n03796401_4309.JPEG,8.0, 3,0
25,3,1.2004,dog,dog,1111_cc_hum_0_dog_40_n02088632_2814.JPEG,8.0, 3,0
25,4,1.0841,bicycle,bicycle,1111_cc_hum_1_bicycle1-clock3.png,8.0, 3,1
25,5,1.1505,chair,chair,1111_cc_hum_1_chair9-boat2.png,8.0, 3,1
25,6,1.1504,car,car,1111_cc_hum_1_car10-keyboard2.png,8.0, 3,1
25,7,1.3671,bird,bird,1111_cc_hum_1_bird1-oven1.png,8.0, 3,1
25,8,1.3836,car,car,1111_cc_hum_1_car4-boat1.png,8.0, 3,1
25,9,1.3336,cat,cat,1111_cc_hum_1_cat1-airplane1.png,8.0, 3,1
25,10,17.6153,clock,clock,1111_cc_hum_1_clock9-cat1.png,8.0, 3,1
25,11,1.4169,elephant,elephant,1111_cc_hum_1_elephant5-bottle2.png,8.0, 3,1
25,12,1.0672,cat,cat,1111_cc_hum_0_cat_40_n02124075_9716.JPEG,8.0, 3,0
25,13,1.55,elephant,elephant,1111_cc_hum_1_elephant2-bird1.png,8.0, 3,1
25,14,0.967,knife,knife,1111_cc_hum_0_knife_40_n03041632_24277.JPEG,8.0, 3,0
25,15,0.7338,bottle,bottle,1111_cc_hum_1_bottle9-truck1.png,8.0, 3,1
25,16,2.2836,truck,truck,1111_cc_hum_1_truck2-boat3.png,8.0, 3,1
25,17,0.7838,chair,chair,1111_cc_hum_1_chair7-truck3.png,8.0, 3,1
25,18,1.0672,keyboard,keyboard,1111_cc_hum_0_keyboard_40_n04505470_933.JPEG,8.0, 3,0
25,19,19.3815,boat,oven,1111_cc_hum_0_oven_40_n04111531_1054.JPEG,8.0, 3,0
25,20,0.9674,bear,bear,1111_cc_hum_0_bear_40_n02134084_2004.JPEG,8.0, 3,0
25,21,0.7172,airplane,airplane,1111_cc_hum_0_airplane_40_n02690373_6853.JPEG,8.0, 4,0
25,22,0.7838,bottle,bottle,1111_cc_hum_0_bottle_40_n04591713_2718.JPEG,8.0, 4,0
25,23,1.4836,bird,bird,1111_cc_hum_0_bird_40_n02037110_11551.JPEG,8.0, 4,0
25,24,1.117,truck,truck,1111_cc_hum_1_truck2-bottle3.png,8.0, 4,1
25,25,5.4664,knife,boat,1111_cc_hum_1_boat6-car1.png,8.0, 4,1
25,26,1.0002,elephant,elephant,1111_cc_hum_0_elephant_40_n02504458_4954.JPEG,8.0, 4,0
25,27,1.2168,chair,chair,1111_cc_hum_1_chair4-oven2.png,8.0, 4,1
25,28,1.0336,chair,chair,1111_cc_hum_1_chair10-bird3.png,8.0, 4,1
25,29,0.8838,clock,clock,1111_cc_hum_1_clock2-knife1.png,8.0, 4,1
25,30,5.4331,clock,clock,1111_cc_hum_1_clock6-chair3.png,8.0, 4,1
25,31,1.0668,truck,truck,1111_cc_hum_1_truck1-knife1.png,8.0, 4,1
25,32,0.9005,dog,dog,1111_cc_hum_1_dog5-bear3.png,8.0, 4,1
25,33,0.8337,clock,clock,1111_cc_hum_1_clock4-airplane1.png,8.0, 4,1
25,34,24.8306,bird,boat,1111_cc_hum_1_boat7-keyboard3.png,8.0, 4,1
25,35,2.05,bicycle,bicycle,1111_cc_hum_0_bicycle_40_n03792782_14216.JPEG,8.0, 4,0
25,36,1.3006,bear,bear,1111_cc_hum_1_bear9-keyboard3.png,8.0, 4,1
25,37,7.132999999999999,knife,elephant,1111_cc_hum_1_elephant10-knife3.png,8.0, 4,1
25,38,2.2336,clock,clock,1111_cc_hum_0_clock_40_n03196217_585.JPEG,8.0, 4,0
25,39,0.6172,airplane,airplane,1111_cc_hum_0_airplane_40_n02690373_6999.JPEG,8.0, 4,0
25,40,0.7004,bird,bird,1111_cc_hum_0_bird_40_n01530575_4260.JPEG,8.0, 4,0
25,41,0.8175,car,car,1111_cc_hum_0_car_40_n03100240_6805.JPEG,8.0, 1,0
25,42,1.1004,clock,clock,1111_cc_hum_0_clock_40_n04548280_2518.JPEG,8.0, 1,0
25,43,1.1837,keyboard,keyboard,1111_cc_hum_0_keyboard_40_n03085013_19436.JPEG,8.0, 1,0
25,44,1.1005,boat,boat,1111_cc_hum_0_boat_40_n02951358_2853.JPEG,8.0, 1,0
25,45,0.6504,keyboard,keyboard,1111_cc_hum_1_keyboard6-bicycle1.png,8.0, 1,1
25,46,0.8502,car,car,1111_cc_hum_1_car10-bicycle2.png,8.0, 1,1
25,47,0.7337,bear,bear,1111_cc_hum_1_bear8-bottle1.png,8.0, 1,1
25,48,5.7661,knife,knife,1111_cc_hum_1_knife10-chair1.png,8.0, 1,1
25,49,0.8504,airplane,airplane,1111_cc_hum_1_airplane1-clock1.png,8.0, 1,1
25,50,1.2003,elephant,elephant,1111_cc_hum_1_elephant8-dog1.png,8.0, 1,1
25,51,25.8139,bird,cat,1111_cc_hum_1_cat5-elephant2.png,8.0, 1,1
25,52,1.25,car,cat,1111_cc_hum_1_cat5-airplane2.png,8.0, 1,1
25,53,0.517,bear,bear,1111_cc_hum_1_bear8-elephant2.png,8.0, 1,1
25,54,13.5654,chair,boat,1111_cc_hum_1_boat7-cat3.png,8.0, 1,1
25,55,0.7502,truck,truck,1111_cc_hum_1_truck5-car1.png,8.0, 1,1
25,56,1.0834,cat,cat,1111_cc_hum_0_cat_40_n02123045_8774.JPEG,8.0, 1,0
25,57,3.5832,car,knife,1111_cc_hum_1_knife7-car2.png,8.0, 1,1
25,58,1.0336,oven,oven,1111_cc_hum_0_oven_40_n04111531_23215.JPEG,8.0, 1,0
25,59,0.6174,dog,dog,1111_cc_hum_0_dog_40_n02101388_2075.JPEG,8.0, 1,0
25,60,0.9837,boat,boat,1111_cc_hum_0_boat_40_n04612504_30742.JPEG,8.0, 1,0
25,61,0.4671,chair,chair,1111_cc_hum_0_chair_40_n03376595_4469.JPEG,8.0, 2,0
25,62,0.8169,bear,bear,1111_cc_hum_0_bear_40_n02134084_5027.JPEG,8.0, 2,0
25,63,0.8168,elephant,elephant,1111_cc_hum_0_elephant_40_n02504013_1916.JPEG,8.0, 2,0
25,64,0.7339,car,car,1111_cc_hum_1_car5-truck3.png,8.0, 2,1
25,65,1.2837,bicycle,bicycle,1111_cc_hum_1_bicycle3-bird1.png,8.0, 2,1
25,66,0.7671,dog,dog,1111_cc_hum_1_dog1-bear1.png,8.0, 2,1
25,67,0.5505,bird,bird,1111_cc_hum_1_bird9-dog2.png,8.0, 2,1
25,68,2.2336,elephant,airplane,1111_cc_hum_1_airplane2-bear1.png,8.0, 2,1
25,69,0.5671,chair,chair,1111_cc_hum_0_chair_40_n03376595_2566.JPEG,8.0, 2,0
25,70,0.8007,car,car,1111_cc_hum_1_car8-chair1.png,8.0, 2,1
25,71,0.6838,dog,dog,1111_cc_hum_1_dog6-clock1.png,8.0, 2,1
25,72,1.3007,clock,clock,1111_cc_hum_1_clock7-cat2.png,8.0, 2,1
25,73,13.0823,elephant,airplane,1111_cc_hum_1_airplane2-dog1.png,8.0, 2,1
25,74,1.2006,knife,knife,1111_cc_hum_1_knife8-bicycle1.png,8.0, 2,1
25,75,0.6675,bicycle,bicycle,1111_cc_hum_1_bicycle4-oven3.png,8.0, 2,1
25,76,2.25,knife,airplane,1111_cc_hum_1_airplane4-elephant1.png,8.0, 2,1
25,77,15.9821,bottle,bottle,1111_cc_hum_0_bottle_40_n04560804_12278.JPEG,8.0, 2,0
25,78,0.7669,car,car,1111_cc_hum_0_car_40_n04285008_3280.JPEG,8.0, 2,0
25,79,2.4501,knife,knife,1111_cc_hum_0_knife_40_n03041632_24114.JPEG,8.0, 2,0
25,80,1.5339,truck,truck,1111_cc_hum_0_truck_40_n03417042_12133.JPEG,8.0, 2,0
28,1,35.2129,cat,oven,1111_cc_hum_0_oven_40_n04111531_1054.JPEG,9.0, 3,0
28,2,0.5837,dog,dog,1111_cc_hum_0_dog_40_n02088632_2814.JPEG,9.0, 3,0
28,3,0.7174,cat,cat,1111_cc_hum_0_cat_40_n02124075_9716.JPEG,9.0, 3,0
28,4,1.4668,bottle,elephant,1111_cc_hum_1_elephant5-bottle2.png,9.0, 3,1
28,5,0.6671,bottle,bottle,1111_cc_hum_1_bottle9-truck1.png,9.0, 3,1
28,6,1.85,chair,chair,1111_cc_hum_1_chair7-truck3.png,9.0, 3,1
28,7,0.9669,knife,knife,1111_cc_hum_0_knife_40_n03041632_24277.JPEG,9.0, 3,0
28,8,1.1504,car,car,1111_cc_hum_1_car10-keyboard2.png,9.0, 3,1
28,9,1.1,clock,clock,1111_cc_hum_1_clock9-cat1.png,9.0, 3,1
28,10,1.0337,truck,truck,1111_cc_hum_1_truck2-boat3.png,9.0, 3,1
28,11,1.1336,car,car,1111_cc_hum_1_car4-boat1.png,9.0, 3,1
28,12,1.0172,bird,bird,1111_cc_hum_1_bird1-oven1.png,9.0, 3,1
28,13,0.9,keyboard,keyboard,1111_cc_hum_0_keyboard_40_n04505470_933.JPEG,9.0, 3,0
28,14,1.2171,elephant,elephant,1111_cc_hum_1_elephant2-bird1.png,9.0, 3,1
28,15,1.0999,bicycle,bicycle,1111_cc_hum_1_bicycle1-clock3.png,9.0, 3,1
28,16,0.8005,cat,cat,1111_cc_hum_1_cat1-airplane1.png,9.0, 3,1
28,17,0.9169,chair,chair,1111_cc_hum_1_chair9-boat2.png,9.0, 3,1
28,18,1.6168,bicycle,bicycle,1111_cc_hum_0_bicycle_40_n03792782_52601.JPEG,9.0, 3,0
28,19,1.1007,truck,truck,1111_cc_hum_0_truck_40_n03796401_4309.JPEG,9.0, 3,0
28,20,1.3839,bear,bear,1111_cc_hum_0_bear_40_n02134084_2004.JPEG,9.0, 3,0
28,21,0.6003,bicycle,bicycle,1111_cc_hum_0_bicycle_40_n03792782_14216.JPEG,9.0, 4,0
28,22,0.9502,bird,bird,1111_cc_hum_0_bird_40_n01530575_4260.JPEG,9.0, 4,0
28,23,1.3501,clock,clock,1111_cc_hum_0_clock_40_n03196217_585.JPEG,9.0, 4,0
28,24,0.8338,dog,dog,1111_cc_hum_1_dog5-bear3.png,9.0, 4,1
28,25,1.1503,truck,truck,1111_cc_hum_1_truck2-bottle3.png,9.0, 4,1
28,26,1.217,bird,bird,1111_cc_hum_0_bird_40_n02037110_11551.JPEG,9.0, 4,0
28,27,0.9007,clock,clock,1111_cc_hum_1_clock6-chair3.png,9.0, 4,1
28,28,1.0672,chair,chair,1111_cc_hum_1_chair10-bird3.png,9.0, 4,1
28,29,1.1171,dog,bear,1111_cc_hum_1_bear9-keyboard3.png,9.0, 4,1
28,30,0.6505,clock,clock,1111_cc_hum_1_clock4-airplane1.png,9.0, 4,1
28,31,0.8338,truck,truck,1111_cc_hum_1_truck1-knife1.png,9.0, 4,1
28,32,17.1813,bottle,elephant,1111_cc_hum_1_elephant10-knife3.png,9.0, 4,1
28,33,1.234,boat,boat,1111_cc_hum_1_boat6-car1.png,9.0, 4,1
28,34,0.5505,airplane,airplane,1111_cc_hum_0_airplane_40_n02690373_6853.JPEG,9.0, 4,0
28,35,13.8986,cat,boat,1111_cc_hum_1_boat7-keyboard3.png,9.0, 4,1
28,36,1.6838,chair,chair,1111_cc_hum_1_chair4-oven2.png,9.0, 4,1
28,37,0.8674,clock,clock,1111_cc_hum_1_clock2-knife1.png,9.0, 4,1
28,38,0.5673,airplane,airplane,1111_cc_hum_0_airplane_40_n02690373_6999.JPEG,9.0, 4,0
28,39,0.7501,elephant,elephant,1111_cc_hum_0_elephant_40_n02504458_4954.JPEG,9.0, 4,0
28,40,1.3999,bottle,bottle,1111_cc_hum_0_bottle_40_n04591713_2718.JPEG,9.0, 4,0
28,41,0.5174,dog,dog,1111_cc_hum_0_dog_40_n02101388_2075.JPEG,9.0, 1,0
28,42,0.7005,car,car,1111_cc_hum_0_car_40_n03100240_6805.JPEG,9.0, 1,0
28,43,0.7503,boat,boat,1111_cc_hum_0_boat_40_n04612504_30742.JPEG,9.0, 1,0
28,44,2.7502,dog,cat,1111_cc_hum_1_cat5-elephant2.png,9.0, 1,1
28,45,1.3669,bear,bear,1111_cc_hum_1_bear8-elephant2.png,9.0, 1,1
28,46,1.1003,car,knife,1111_cc_hum_1_knife7-car2.png,9.0, 1,1
28,47,12.5157,keyboard,cat,1111_cc_hum_1_cat5-airplane2.png,9.0, 1,1
28,48,0.8006,keyboard,keyboard,1111_cc_hum_1_keyboard6-bicycle1.png,9.0, 1,1
28,49,0.8837,oven,oven,1111_cc_hum_0_oven_40_n04111531_23215.JPEG,9.0, 1,0
28,50,1.8003,oven,knife,1111_cc_hum_1_knife10-chair1.png,9.0, 1,1
28,51,0.7003,bear,bear,1111_cc_hum_1_bear8-bottle1.png,9.0, 1,1
28,52,2.3168,truck,truck,1111_cc_hum_1_truck5-car1.png,9.0, 1,1
28,53,1.4669,elephant,elephant,1111_cc_hum_1_elephant8-dog1.png,9.0, 1,1
28,54,5.1338,bear,boat,1111_cc_hum_1_boat7-cat3.png,9.0, 1,1
28,55,1.0336,cat,cat,1111_cc_hum_0_cat_40_n02123045_8774.JPEG,9.0, 1,0
28,56,1.0334,car,car,1111_cc_hum_1_car10-bicycle2.png,9.0, 1,1
28,57,2.0669,airplane,airplane,1111_cc_hum_1_airplane1-clock1.png,9.0, 1,1
28,58,1.2667,boat,boat,1111_cc_hum_0_boat_40_n02951358_2853.JPEG,9.0, 1,0
28,59,1.8503,chair,keyboard,1111_cc_hum_0_keyboard_40_n03085013_19436.JPEG,9.0, 1,0
28,60,0.8168,clock,clock,1111_cc_hum_0_clock_40_n04548280_2518.JPEG,9.0, 1,0
28,61,0.6001,car,car,1111_cc_hum_0_car_40_n04285008_3280.JPEG,9.0, 2,0
28,62,0.7673,chair,chair,1111_cc_hum_0_chair_40_n03376595_2566.JPEG,9.0, 2,0
28,63,0.7167,chair,chair,1111_cc_hum_0_chair_40_n03376595_4469.JPEG,9.0, 2,0
28,64,0.9168,knife,knife,1111_cc_hum_1_knife8-bicycle1.png,9.0, 2,1
28,65,0.6838,clock,clock,1111_cc_hum_1_clock7-cat2.png,9.0, 2,1
28,66,0.6174,bear,bear,1111_cc_hum_0_bear_40_n02134084_5027.JPEG,9.0, 2,0
28,67,0.5507,bicycle,bicycle,1111_cc_hum_1_bicycle4-oven3.png,9.0, 2,1
28,68,0.8669,bicycle,bicycle,1111_cc_hum_1_bicycle3-bird1.png,9.0, 2,1
28,69,5.5665,cat,airplane,1111_cc_hum_1_airplane4-elephant1.png,9.0, 2,1
28,70,0.8836,dog,dog,1111_cc_hum_1_dog1-bear1.png,9.0, 2,1
28,71,0.6337,dog,dog,1111_cc_hum_1_dog6-clock1.png,9.0, 2,1
28,72,1.7669,airplane,airplane,1111_cc_hum_1_airplane2-dog1.png,9.0, 2,1
28,73,3.1165,bottle,bottle,1111_cc_hum_0_bottle_40_n04560804_12278.JPEG,9.0, 2,0
28,74,1.2506,car,car,1111_cc_hum_1_car5-truck3.png,9.0, 2,1
28,75,0.5669,bird,bird,1111_cc_hum_1_bird9-dog2.png,9.0, 2,1
28,76,0.9836,car,car,1111_cc_hum_1_car8-chair1.png,9.0, 2,1
28,77,1.3005,airplane,airplane,1111_cc_hum_1_airplane2-bear1.png,9.0, 2,1
28,78,1.1502,truck,truck,1111_cc_hum_0_truck_40_n03417042_12133.JPEG,9.0, 2,0
28,79,6.4998,knife,knife,1111_cc_hum_0_knife_40_n03041632_24114.JPEG,9.0, 2,0
28,80,0.9668,elephant,elephant,1111_cc_hum_0_elephant_40_n02504013_1916.JPEG,9.0, 2,0
28,81,2.9336,bear,bear,1111_cc_hum_0_bear_40_n02134418_4041.JPEG,9.0, 6,0
28,82,1.6004,bird,bird,1111_cc_hum_0_bird_40_n01843383_8077.JPEG,9.0, 6,0
28,83,0.7669,elephant,elephant,1111_cc_hum_0_elephant_40_n02504458_4336.JPEG,9.0, 6,0
28,84,0.7336,chair,chair,1111_cc_hum_1_chair1-truck3.png,9.0, 6,1
28,85,1.5668,chair,chair,1111_cc_hum_0_chair_40_n04429376_9212.JPEG,9.0, 6,0
28,86,0.6836,elephant,elephant,1111_cc_hum_1_elephant3-keyboard2.png,9.0, 6,1
28,87,0.5504,bear,bear,1111_cc_hum_1_bear8-dog1.png,9.0, 6,1
28,88,0.6673,knife,knife,1111_cc_hum_1_knife1-elephant1.png,9.0, 6,1
28,89,0.8336,clock,clock,1111_cc_hum_1_clock3-cat1.png,9.0, 6,1
28,90,0.8838,bottle,bottle,1111_cc_hum_1_bottle3-cat3.png,9.0, 6,1
28,91,0.8169,airplane,airplane,1111_cc_hum_0_airplane_40_n02690373_8789.JPEG,9.0, 6,0
28,92,0.6669,chair,chair,1111_cc_hum_1_chair10-airplane2.png,9.0, 6,1
28,93,0.7336,cat,cat,1111_cc_hum_1_cat5-bottle1.png,9.0, 6,1
28,94,0.8837,bicycle,bicycle,1111_cc_hum_1_bicycle3-oven3.png,9.0, 6,1
28,95,2.1833,chair,bird,1111_cc_hum_1_bird5-truck2.png,9.0, 6,1
28,96,0.7174,dog,dog,1111_cc_hum_1_dog4-oven1.png,9.0, 6,1
28,97,0.9171,car,car,1111_cc_hum_1_car4-bird1.png,9.0, 6,1
28,98,0.9003,bottle,bottle,1111_cc_hum_0_bottle_40_n04591713_5754.JPEG,9.0, 6,0
28,99,0.5673,car,car,1111_cc_hum_0_car_40_n02814533_23512.JPEG,9.0, 6,0
28,100,0.5669,knife,knife,1111_cc_hum_0_knife_40_n03041632_11797.JPEG,9.0, 6,0
28,101,0.6174,dog,dog,1111_cc_hum_0_dog_40_n02099712_5781.JPEG,9.0, 7,0
28,102,0.4504,bird,bird,1111_cc_hum_0_bird_40_n01537544_2772.JPEG,9.0, 7,0
28,103,0.617,bicycle,bicycle,1111_cc_hum_0_bicycle_40_n03792782_33855.JPEG,9.0, 7,0
28,104,1.2001,chair,keyboard,1111_cc_hum_1_keyboard9-airplane3.png,9.0, 7,1
28,105,0.8333,knife,knife,1111_cc_hum_1_knife6-oven3.png,9.0, 7,1
28,106,8.2827,car,dog,1111_cc_hum_1_dog7-keyboard3.png,9.0, 7,1
28,107,1.1501,car,dog,1111_cc_hum_1_dog1-boat3.png,9.0, 7,1
28,108,0.8674,clock,clock,1111_cc_hum_1_clock9-airplane1.png,9.0, 7,1
28,109,7.5832,oven,oven,1111_cc_hum_0_oven_40_n04111531_10011.JPEG,9.0, 7,0
28,110,0.9671,clock,clock,1111_cc_hum_1_clock1-bear1.png,9.0, 7,1
28,111,0.9168,knife,knife,1111_cc_hum_1_knife2-dog1.png,9.0, 7,1
28,112,0.5338,car,car,1111_cc_hum_1_car9-bicycle2.png,9.0, 7,1
28,113,0.7337,bicycle,bicycle,1111_cc_hum_1_bicycle10-boat3.png,9.0, 7,1
28,114,0.9337,clock,clock,1111_cc_hum_1_clock3-car2.png,9.0, 7,1
28,115,1.0834,bottle,bottle,1111_cc_hum_1_bottle3-chair3.png,9.0, 7,1
28,116,0.7673,keyboard,keyboard,1111_cc_hum_0_keyboard_40_n03085013_17762.JPEG,9.0, 7,0
28,117,0.7002,car,car,1111_cc_hum_1_car10-elephant2.png,9.0, 7,1
28,118,2.3836,dog,cat,1111_cc_hum_0_cat_40_n02123159_2684.JPEG,9.0, 7,0
28,119,1.4501,bottle,bottle,1111_cc_hum_0_bottle_40_n03937543_2357.JPEG,9.0, 7,0
28,120,1.2837,boat,boat,1111_cc_hum_0_boat_40_n02951358_5718.JPEG,9.0, 7,0
28,121,0.8501,car,car,1111_cc_hum_0_car_40_n02814533_82925.JPEG,9.0, 8,0
28,122,1.6673,oven,oven,1111_cc_hum_0_oven_40_n04111531_7034.JPEG,9.0, 8,0
28,123,0.6672,chair,chair,1111_cc_hum_0_chair_40_n04099969_2398.JPEG,9.0, 8,0
28,124,1.5002,car,car,1111_cc_hum_1_car2-cat3.png,9.0, 8,1
28,125,0.7171,car,car,1111_cc_hum_1_car8-bicycle2.png,9.0, 8,1
28,126,0.5836,bird,bird,1111_cc_hum_1_bird8-elephant1.png,9.0, 8,1
28,127,7.2995,knife,bottle,1111_cc_hum_1_bottle7-bear1.png,9.0, 8,1
28,128,3.6002,car,keyboard,1111_cc_hum_1_keyboard4-truck3.png,9.0, 8,1
28,129,0.9837,truck,truck,1111_cc_hum_0_truck_40_n03417042_28078.JPEG,9.0, 8,0
28,130,0.8505,bottle,dog,1111_cc_hum_1_dog2-bottle2.png,9.0, 8,1
28,131,4.0999,cat,boat,1111_cc_hum_1_boat7-bottle1.png,9.0, 8,1
28,132,1.3,elephant,elephant,1111_cc_hum_1_elephant6-car3.png,9.0, 8,1
28,133,0.5838,dog,dog,1111_cc_hum_1_dog1-bird1.png,9.0, 8,1
28,134,6.2334,clock,chair,1111_cc_hum_1_chair8-keyboard3.png,9.0, 8,1
28,135,0.9669,clock,clock,1111_cc_hum_0_clock_40_n04548280_1438.JPEG,9.0, 8,0
28,136,4.7997,clock,oven,1111_cc_hum_1_oven3-bear2.png,9.0, 8,1
28,137,0.7501,car,car,1111_cc_hum_1_car2-knife3.png,9.0, 8,1
28,138,1.0505,keyboard,keyboard,1111_cc_hum_0_keyboard_40_n04505470_2115.JPEG,9.0, 8,0
28,139,1.2668,clock,clock,1111_cc_hum_0_clock_40_n03196217_5252.JPEG,9.0, 8,0
28,140,0.684,airplane,airplane,1111_cc_hum_0_airplane_40_n02690373_1071.JPEG,9.0, 8,0
28,141,1.267,truck,truck,1111_cc_hum_0_truck_40_n03417042_14000.JPEG,9.0, 5,0
28,142,0.7169,elephant,elephant,1111_cc_hum_0_elephant_40_n02504458_1848.JPEG,9.0, 5,0
28,143,0.5672,cat,cat,1111_cc_hum_0_cat_40_n02123045_964.JPEG,9.0, 5,0
28,144,0.7667,cat,cat,1111_cc_hum_1_cat10-bird2.png,9.0, 5,1
28,145,1.1173,bird,keyboard,1111_cc_hum_1_keyboard3-bicycle2.png,9.0, 5,1
28,146,1.3001,bear,bear,1111_cc_hum_1_bear10-knife2.png,9.0, 5,1
28,147,3.0337,oven,oven,1111_cc_hum_1_oven1-boat3.png,9.0, 5,1
28,148,1.2502,chair,airplane,1111_cc_hum_1_airplane6-chair3.png,9.0, 5,1
28,149,0.6343,bear,bear,1111_cc_hum_0_bear_40_n02133161_2137.JPEG,9.0, 5,0
28,150,2.3832,boat,boat,1111_cc_hum_0_boat_40_n02951358_4826.JPEG,9.0, 5,0
28,151,1.3672,elephant,elephant,1111_cc_hum_1_elephant4-clock3.png,9.0, 5,1
28,152,1.5667,truck,truck,1111_cc_hum_1_truck2-chair1.png,9.0, 5,1
28,153,0.8005,knife,knife,1111_cc_hum_1_knife1-dog1.png,9.0, 5,1
28,154,0.7170000000000001,bear,bear,1111_cc_hum_1_bear10-clock1.png,9.0, 5,1
28,155,1.3668,elephant,elephant,1111_cc_hum_1_elephant8-clock2.png,9.0, 5,1
28,156,0.8336,cat,cat,1111_cc_hum_1_cat5-knife2.png,9.0, 5,1
28,157,1.0,boat,boat,1111_cc_hum_1_boat3-car3.png,9.0, 5,1
28,158,0.7174,knife,knife,1111_cc_hum_0_knife_40_n03041632_14224.JPEG,9.0, 5,0
28,159,0.8006,bicycle,bicycle,1111_cc_hum_0_bicycle_40_n02835271_276.JPEG,9.0, 5,0
28,160,0.9668,dog,dog,1111_cc_hum_0_dog_40_n02102318_11816.JPEG,9.0, 5,0
28,161,0.6336,chair,chair,1111_cc_hum_0_chair_40_n04429376_18127.JPEG,9.0, 9,0
28,162,0.5335,knife,knife,1111_cc_hum_0_knife_40_n03041632_26340.JPEG,9.0, 9,0
28,163,0.5837,keyboard,keyboard,1111_cc_hum_0_keyboard_40_n03085013_2122.JPEG,9.0, 9,0
28,164,5.15,bottle,chair,1111_cc_hum_1_chair5-cat3.png,9.0, 9,1
28,165,2.0337,knife,bird,1111_cc_hum_1_bird10-elephant2.png,9.0, 9,1
28,166,0.7337,bicycle,bicycle,1111_cc_hum_1_bicycle3-elephant2.png,9.0, 9,1
28,167,0.7005,elephant,elephant,1111_cc_hum_1_elephant7-knife2.png,9.0, 9,1
28,168,1.2,elephant,elephant,1111_cc_hum_1_elephant7-keyboard3.png,9.0, 9,1
28,169,0.7668,clock,clock,1111_cc_hum_1_clock8-airplane2.png,9.0, 9,1
28,170,0.6169,clock,clock,1111_cc_hum_0_clock_40_n03196217_5478.JPEG,9.0, 9,0
28,171,13.3485,car,keyboard,1111_cc_hum_1_keyboard4-cat2.png,9.0, 9,1
28,172,1.2999,bird,bird,1111_cc_hum_1_bird6-car3.png,9.0, 9,1
28,173,0.9336,boat,boat,1111_cc_hum_0_boat_40_n04273569_13091.JPEG,9.0, 9,0
28,174,0.7504,airplane,airplane,1111_cc_hum_1_airplane1-chair2.png,9.0, 9,1
28,175,0.8173,chair,keyboard,1111_cc_hum_1_keyboard9-truck3.png,9.0, 9,1
28,176,0.7337,bear,bear,1111_cc_hum_1_bear9-knife2.png,9.0, 9,1
28,177,1.8003,elephant,elephant,1111_cc_hum_1_elephant4-oven1.png,9.0, 9,1
28,178,2.0501,bottle,bottle,1111_cc_hum_0_bottle_40_n04579145_1302.JPEG,9.0, 9,0
28,179,0.7338,dog,dog,1111_cc_hum_0_dog_40_n02110806_16707.JPEG,9.0, 9,0
28,180,0.9836,knife,knife,1111_cc_hum_0_knife_40_n03041632_21723.JPEG,9.0, 9,0
28,181,1.8504,clock,clock,1111_cc_hum_0_clock_40_n03196217_3943.JPEG,9.0, 10,0
28,182,0.6335,airplane,airplane,1111_cc_hum_0_airplane_40_n02690373_19152.JPEG,9.0, 10,0
28,183,2.1669,keyboard,chair,1111_cc_hum_0_chair_40_n04429376_19101.JPEG,9.0, 10,0
28,184,1.2838,bear,bear,1111_cc_hum_0_bear_40_n02134418_4895.JPEG,9.0, 10,0
28,185,1.0005,boat,boat,1111_cc_hum_1_boat9-bird1.png,9.0, 10,1
28,186,0.8005,elephant,elephant,1111_cc_hum_1_elephant1-boat2.png,9.0, 10,1
28,187,3.117,knife,boat,1111_cc_hum_1_boat6-dog1.png,9.0, 10,1
28,188,1.1004,boat,boat,1111_cc_hum_1_boat3-airplane2.png,9.0, 10,1
28,189,0.5669,elephant,elephant,1111_cc_hum_0_elephant_40_n02504458_4.JPEG,9.0, 10,0
28,190,3.3665,cat,dog,1111_cc_hum_1_dog9-bottle1.png,9.0, 10,1
28,191,0.6339,cat,cat,1111_cc_hum_1_cat5-dog3.png,9.0, 10,1
28,192,4.0999,knife,boat,1111_cc_hum_1_boat2-bird1.png,9.0, 10,1
28,193,0.8169,clock,clock,1111_cc_hum_1_clock3-bear3.png,9.0, 10,1
28,194,0.5673,bicycle,bicycle,1111_cc_hum_1_bicycle5-car3.png,9.0, 10,1
28,195,5.9499,boat,airplane,1111_cc_hum_1_airplane8-bicycle3.png,9.0, 10,1
28,196,0.8669,car,car,1111_cc_hum_1_car1-airplane1.png,9.0, 10,1
28,197,5.9833,knife,keyboard,1111_cc_hum_1_keyboard7-knife1.png,9.0, 10,1
28,198,1.1837,oven,oven,1111_cc_hum_0_oven_40_n04111531_9712.JPEG,9.0, 10,0
28,199,0.6504,cat,cat,1111_cc_hum_0_cat_40_n02124075_8351.JPEG,9.0, 10,0
28,200,0.5335,car,car,1111_cc_hum_0_car_40_n02814533_32461.JPEG,9.0, 10,0
28,201,0.9172,boat,boat,1111_cc_hum_0_boat_40_n04612504_8942.JPEG,9.0, 11,0
28,202,0.7004,truck,truck,1111_cc_hum_0_truck_40_n03417042_16389.JPEG,9.0, 11,0
28,203,0.7173,bicycle,bicycle,1111_cc_hum_0_bicycle_40_n03792782_692.JPEG,9.0, 11,0
28,204,1.0168,car,bird,1111_cc_hum_1_bird8-keyboard2.png,9.0, 11,1
28,205,1.6338,knife,knife,1111_cc_hum_1_knife6-boat3.png,9.0, 11,1
28,206,0.9006,bottle,bottle,1111_cc_hum_1_bottle9-keyboard1.png,9.0, 11,1
28,207,0.8502,clock,clock,1111_cc_hum_1_clock1-boat3.png,9.0, 11,1
28,208,0.5837,bicycle,bicycle,1111_cc_hum_0_bicycle_40_n03792782_3467.JPEG,9.0, 11,0
28,209,5.4166,bottle,chair,1111_cc_hum_1_chair5-bird1.png,9.0, 11,1
28,210,1.5503,chair,cat,1111_cc_hum_1_cat5-chair3.png,9.0, 11,1
28,211,1.3003,truck,truck,1111_cc_hum_0_truck_40_n03417042_19905.JPEG,9.0, 11,0
28,212,0.6341,bicycle,bicycle,1111_cc_hum_1_bicycle9-chair1.png,9.0, 11,1
28,213,1.4173,airplane,airplane,1111_cc_hum_1_airplane5-bicycle1.png,9.0, 11,1
28,214,3.3836,keyboard,oven,1111_cc_hum_1_oven2-truck3.png,9.0, 11,1
28,215,0.7173,elephant,elephant,1111_cc_hum_1_elephant1-bottle1.png,9.0, 11,1
28,216,1.9332,elephant,boat,1111_cc_hum_1_boat3-clock3.png,9.0, 11,1
28,217,1.6669,truck,truck,1111_cc_hum_1_truck10-bicycle1.png,9.0, 11,1
28,218,0.8007,cat,cat,1111_cc_hum_0_cat_40_n02124075_14094.JPEG,9.0, 11,0
28,219,0.6001,oven,oven,1111_cc_hum_0_oven_40_n04111531_9490.JPEG,9.0, 11,0
28,220,0.4673,elephant,elephant,1111_cc_hum_0_elephant_40_n02504013_6660.JPEG,9.0, 11,0
28,221,0.7505,bird,bird,1111_cc_hum_0_bird_40_n02033041_6633.JPEG,9.0, 12,0
28,222,1.0506,dog,bear,1111_cc_hum_0_bear_40_n02132136_6787.JPEG,9.0, 12,0
28,223,0.7669,keyboard,keyboard,1111_cc_hum_0_keyboard_40_n04505470_1430.JPEG,9.0, 12,0
28,224,0.5836,bear,bear,1111_cc_hum_1_bear4-oven2.png,9.0, 12,1
28,225,1.8169,chair,keyboard,1111_cc_hum_1_keyboard10-oven3.png,9.0, 12,1
28,226,0.7839,cat,cat,1111_cc_hum_1_cat10-elephant3.png,9.0, 12,1
28,227,0.4674,elephant,elephant,1111_cc_hum_1_elephant2-bottle3.png,9.0, 12,1
28,228,0.6671,bicycle,bicycle,1111_cc_hum_1_bicycle4-truck3.png,9.0, 12,1
28,229,0.7170000000000001,knife,knife,1111_cc_hum_1_knife2-bear2.png,9.0, 12,1
28,230,0.4006,bicycle,bicycle,1111_cc_hum_1_bicycle7-clock3.png,9.0, 12,1
28,231,0.7004,airplane,airplane,1111_cc_hum_0_airplane_40_n02690373_4728.JPEG,9.0, 12,0
28,232,2.0167,bottle,bottle,1111_cc_hum_0_bottle_40_n04560804_32398.JPEG,9.0, 12,0
28,233,0.967,car,knife,1111_cc_hum_1_knife2-car3.png,9.0, 12,1
28,234,1.1338,bird,bird,1111_cc_hum_1_bird9-bear3.png,9.0, 12,1
28,235,0.7168,bicycle,bicycle,1111_cc_hum_1_bicycle1-dog3.png,9.0, 12,1
28,236,1.0169,bird,bird,1111_cc_hum_1_bird10-clock1.png,9.0, 12,1
28,237,0.6669,elephant,elephant,1111_cc_hum_1_elephant3-cat2.png,9.0, 12,1
28,238,0.7168,bird,bird,1111_cc_hum_0_bird_40_n01532829_22520.JPEG,9.0, 12,0
28,239,0.3169,dog,dog,1111_cc_hum_0_dog_40_n02108000_324.JPEG,9.0, 12,0
28,240,0.3175,car,car,1111_cc_hum_0_car_40_n03100240_6954.JPEG,9.0, 12,0
28,241,0.8005,chair,chair,1111_cc_hum_0_chair_40_n04099969_2267.JPEG,9.0, 13,0
28,242,0.5337,bear,bear,1111_cc_hum_0_bear_40_n02132136_1934.JPEG,9.0, 13,0
28,243,0.9004,truck,truck,1111_cc_hum_0_truck_40_n03417042_10043.JPEG,9.0, 13,0
28,244,0.8337,dog,dog,1111_cc_hum_1_dog4-chair1.png,9.0, 13,1
28,245,0.6004,chair,chair,1111_cc_hum_1_chair9-bird3.png,9.0, 13,1
28,246,0.4507,cat,cat,1111_cc_hum_0_cat_40_n02123394_2364.JPEG,9.0, 13,0
28,247,0.9337,truck,truck,1111_cc_hum_1_truck2-car3.png,9.0, 13,1
28,248,1.2841,bird,bird,1111_cc_hum_1_bird6-airplane2.png,9.0, 13,1
28,249,0.5505,clock,clock,1111_cc_hum_1_clock9-chair3.png,9.0, 13,1
28,250,1.6337,oven,oven,1111_cc_hum_0_oven_40_n04111531_14611.JPEG,9.0, 13,0
28,251,0.434,elephant,elephant,1111_cc_hum_1_elephant9-bicycle2.png,9.0, 13,1
28,252,0.6506,chair,chair,1111_cc_hum_1_chair1-cat3.png,9.0, 13,1
28,253,3.0503,bear,bird,1111_cc_hum_1_bird1-elephant2.png,9.0, 13,1
28,254,0.7503,truck,truck,1111_cc_hum_1_truck8-elephant1.png,9.0, 13,1
28,255,0.5006,clock,clock,1111_cc_hum_1_clock6-bird3.png,9.0, 13,1
28,256,0.6338,elephant,elephant,1111_cc_hum_1_elephant9-boat3.png,9.0, 13,1
28,257,1.1501,car,car,1111_cc_hum_1_car1-chair3.png,9.0, 13,1
28,258,0.7339,clock,clock,1111_cc_hum_0_clock_40_n04548280_7490.JPEG,9.0, 13,0
28,259,1.1005,oven,oven,1111_cc_hum_0_oven_40_n04111531_9844.JPEG,9.0, 13,0
28,260,0.5506,airplane,airplane,1111_cc_hum_0_airplane_40_n02690373_3874.JPEG,9.0, 13,0
28,261,0.5167,car,car,1111_cc_hum_0_car_40_n03100240_418.JPEG,9.0, 14,0
28,262,0.2838,keyboard,keyboard,1111_cc_hum_0_keyboard_40_n03085013_4160.JPEG,9.0, 14,0
28,263,0.5504,bird,bird,1111_cc_hum_0_bird_40_n02007558_10725.JPEG,9.0, 14,0
28,264,0.5670000000000001,boat,boat,1111_cc_hum_1_boat5-car3.png,9.0, 14,1
28,265,8.3662,bird,bear,1111_cc_hum_1_bear2-keyboard2.png,9.0, 14,1
28,266,0.5836,keyboard,keyboard,1111_cc_hum_1_keyboard9-boat2.png,9.0, 14,1
28,267,5.5334,knife,bear,1111_cc_hum_1_bear6-clock1.png,9.0, 14,1
28,268,0.6006,keyboard,keyboard,1111_cc_hum_1_keyboard1-clock1.png,9.0, 14,1
28,269,0.8335,bicycle,bicycle,1111_cc_hum_0_bicycle_40_n03792782_3047.JPEG,9.0, 14,0
28,270,3.1837,dog,cat,1111_cc_hum_1_cat3-oven2.png,9.0, 14,1
28,271,1.1337,knife,bottle,1111_cc_hum_1_bottle1-cat3.png,9.0, 14,1
28,272,1.217,car,airplane,1111_cc_hum_1_airplane9-keyboard2.png,9.0, 14,1
28,273,0.3504,car,car,1111_cc_hum_0_car_40_n04285008_9470.JPEG,9.0, 14,0
28,274,0.8503,truck,truck,1111_cc_hum_1_truck3-bicycle1.png,9.0, 14,1
28,275,0.6004,truck,truck,1111_cc_hum_1_truck2-airplane3.png,9.0, 14,1
28,276,8.5824,bottle,oven,1111_cc_hum_1_oven7-dog2.png,9.0, 14,1
28,277,0.7338,elephant,elephant,1111_cc_hum_1_elephant9-airplane2.png,9.0, 14,1
28,278,0.3168,elephant,elephant,1111_cc_hum_0_elephant_40_n02504458_7013.JPEG,9.0, 14,0
28,279,0.7336,bicycle,bicycle,1111_cc_hum_0_bicycle_40_n03792782_17337.JPEG,9.0, 14,0
28,280,1.0504,boat,boat,1111_cc_hum_0_boat_40_n02951358_34441.JPEG,9.0, 14,0
28,281,0.6669,truck,truck,1111_cc_hum_0_truck_40_n04467665_50932.JPEG,9.0, 15,0
28,282,0.5502,elephant,elephant,1111_cc_hum_0_elephant_40_n02504013_8385.JPEG,9.0, 15,0
28,283,7.4498,knife,knife,1111_cc_hum_0_knife_40_n03041632_4808.JPEG,9.0, 15,0
28,284,0.5676,car,car,1111_cc_hum_1_car5-knife2.png,9.0, 15,1
28,285,0.7169,cat,cat,1111_cc_hum_1_cat2-bottle3.png,9.0, 15,1
28,286,0.5337,clock,clock,1111_cc_hum_1_clock6-knife2.png,9.0, 15,1
28,287,0.5175,boat,boat,1111_cc_hum_1_boat2-oven3.png,9.0, 15,1
28,288,0.3838,car,car,1111_cc_hum_1_car10-dog1.png,9.0, 15,1
28,289,0.8337,clock,clock,1111_cc_hum_1_clock1-truck3.png,9.0, 15,1
28,290,0.9502,boat,boat,1111_cc_hum_0_boat_40_n02951358_15424.JPEG,9.0, 15,0
28,291,1.2667,airplane,airplane,1111_cc_hum_1_airplane8-truck3.png,9.0, 15,1
28,292,0.6837,cat,cat,1111_cc_hum_1_cat10-clock1.png,9.0, 15,1
28,293,0.5841,elephant,elephant,1111_cc_hum_1_elephant8-boat2.png,9.0, 15,1
28,294,1.0169,bottle,bottle,1111_cc_hum_0_bottle_40_n02823428_825.JPEG,9.0, 15,0
28,295,0.8003,car,oven,1111_cc_hum_1_oven6-knife3.png,9.0, 15,1
28,296,0.7172,car,dog,1111_cc_hum_1_dog9-car1.png,9.0, 15,1
28,297,0.7002,bottle,knife,1111_cc_hum_1_knife9-bottle2.png,9.0, 15,1
28,298,0.234,airplane,airplane,1111_cc_hum_0_airplane_40_n02690373_4243.JPEG,9.0, 15,0
28,299,0.584,dog,dog,1111_cc_hum_0_dog_40_n02097130_1834.JPEG,9.0, 15,0
28,300,0.4504,bear,bear,1111_cc_hum_0_bear_40_n02134084_6343.JPEG,9.0, 15,0
28,301,6.3334,dog,dog,1111_cc_hum_0_dog_40_n02112018_370.JPEG,9.0, 16,0
28,302,0.4006,cat,cat,1111_cc_hum_0_cat_40_n02123159_3330.JPEG,9.0, 16,0
28,303,0.6505,clock,clock,1111_cc_hum_0_clock_40_n03196217_6809.JPEG,9.0, 16,0
28,304,0.6002,chair,chair,1111_cc_hum_0_chair_40_n03376595_4309.JPEG,9.0, 16,0
28,305,0.9338,bottle,bottle,1111_cc_hum_1_bottle8-bicycle1.png,9.0, 16,1
28,306,1.4339,truck,truck,1111_cc_hum_1_truck1-cat1.png,9.0, 16,1
28,307,2.0006,bottle,keyboard,1111_cc_hum_1_keyboard6-bottle2.png,9.0, 16,1
28,308,0.5842,keyboard,keyboard,1111_cc_hum_0_keyboard_40_n03085013_1483.JPEG,9.0, 16,0
28,309,0.9503,car,car,1111_cc_hum_1_car4-bear3.png,9.0, 16,1
28,310,0.5336,bicycle,bicycle,1111_cc_hum_1_bicycle2-dog1.png,9.0, 16,1
28,311,0.6505,dog,dog,1111_cc_hum_1_dog4-bird1.png,9.0, 16,1
28,312,1.767,car,knife,1111_cc_hum_1_knife5-oven2.png,9.0, 16,1
28,313,11.2655,keyboard,oven,1111_cc_hum_1_oven5-keyboard2.png,9.0, 16,1
28,314,1.0006,car,car,1111_cc_hum_1_car3-elephant3.png,9.0, 16,1
28,315,2.7001,car,chair,1111_cc_hum_1_chair4-truck2.png,9.0, 16,1
28,316,0.7337,truck,truck,1111_cc_hum_1_truck1-bear1.png,9.0, 16,1
28,317,5.65,bear,dog,1111_cc_hum_1_dog3-bear3.png,9.0, 16,1
28,318,1.317,bottle,bottle,1111_cc_hum_0_bottle_40_n04560804_13773.JPEG,9.0, 16,0
28,319,0.5335,knife,knife,1111_cc_hum_0_knife_40_n03041632_105081.JPEG,9.0, 16,0
28,320,0.6006,bird,bird,1111_cc_hum_0_bird_40_n01601694_13334.JPEG,9.0, 16,0
40,1,1.134,bear,bear,1111_cc_hum_0_bear_40_n02134084_2004.JPEG,7.0, 3,0
40,2,0.6004,truck,truck,1111_cc_hum_0_truck_40_n03796401_4309.JPEG,7.0, 3,0
40,3,1.2338,keyboard,keyboard,1111_cc_hum_0_keyboard_40_n04505470_933.JPEG,7.0, 3,0
40,4,2.7668,chair,chair,1111_cc_hum_1_chair9-boat2.png,7.0, 3,1
40,5,1.4337,bird,bird,1111_cc_hum_1_bird1-oven1.png,7.0, 3,1
40,6,4.2335,oven,chair,1111_cc_hum_1_chair7-truck3.png,7.0, 3,1
40,7,4.7836,knife,clock,1111_cc_hum_1_clock9-cat1.png,7.0, 3,1
40,8,4.6165,oven,oven,1111_cc_hum_0_oven_40_n04111531_1054.JPEG,7.0, 3,0
40,9,1.5001,bottle,bottle,1111_cc_hum_1_bottle9-truck1.png,7.0, 3,1
40,10,6.6659,keyboard,knife,1111_cc_hum_0_knife_40_n03041632_24277.JPEG,7.0, 3,0
40,11,0.9338,bicycle,bicycle,1111_cc_hum_1_bicycle1-clock3.png,7.0, 3,1
40,12,1.5336,car,car,1111_cc_hum_1_car10-keyboard2.png,7.0, 3,1
40,13,1.3837,elephant,elephant,1111_cc_hum_1_elephant5-bottle2.png,7.0, 3,1
40,14,7.3996,boat,elephant,1111_cc_hum_1_elephant2-bird1.png,7.0, 3,1
40,15,0.8504,truck,truck,1111_cc_hum_1_truck2-boat3.png,7.0, 3,1
40,16,0.5835,cat,cat,1111_cc_hum_1_cat1-airplane1.png,7.0, 3,1
40,17,2.7001,car,car,1111_cc_hum_1_car4-boat1.png,7.0, 3,1
40,18,0.617,cat,cat,1111_cc_hum_0_cat_40_n02124075_9716.JPEG,7.0, 3,0
40,19,1.817,dog,dog,1111_cc_hum_0_dog_40_n02088632_2814.JPEG,7.0, 3,0
40,20,0.8839,bicycle,bicycle,1111_cc_hum_0_bicycle_40_n03792782_52601.JPEG,7.0, 3,0
40,21,0.3665,elephant,elephant,1111_cc_hum_0_elephant_40_n02504458_4954.JPEG,7.0, 4,0
40,22,0.6174,bird,bird,1111_cc_hum_0_bird_40_n02037110_11551.JPEG,7.0, 4,0
40,23,0.4669,bird,bird,1111_cc_hum_0_bird_40_n01530575_4260.JPEG,7.0, 4,0
40,24,5.0162,knife,boat,1111_cc_hum_1_boat6-car1.png,7.0, 4,1
40,25,1.5166,elephant,bear,1111_cc_hum_1_bear9-keyboard3.png,7.0, 4,1
40,26,2.1835,chair,chair,1111_cc_hum_1_chair10-bird3.png,7.0, 4,1
40,27,4.9003,bottle,boat,1111_cc_hum_1_boat7-keyboard3.png,7.0, 4,1
40,28,1.3167,truck,truck,1111_cc_hum_1_truck2-bottle3.png,7.0, 4,1
40,29,0.8336,chair,chair,1111_cc_hum_1_chair4-oven2.png,7.0, 4,1
40,30,0.7169,airplane,airplane,1111_cc_hum_0_airplane_40_n02690373_6999.JPEG,7.0, 4,0
40,31,3.0832,boat,elephant,1111_cc_hum_1_elephant10-knife3.png,7.0, 4,1
40,32,0.7006,clock,clock,1111_cc_hum_1_clock2-knife1.png,7.0, 4,1
40,33,1.0002,clock,clock,1111_cc_hum_1_clock6-chair3.png,7.0, 4,1
40,34,0.9507,clock,clock,1111_cc_hum_1_clock4-airplane1.png,7.0, 4,1
40,35,0.8839,dog,dog,1111_cc_hum_1_dog5-bear3.png,7.0, 4,1
40,36,1.0672,bicycle,bicycle,1111_cc_hum_0_bicycle_40_n03792782_14216.JPEG,7.0, 4,0
40,37,0.5842,truck,truck,1111_cc_hum_1_truck1-knife1.png,7.0, 4,1
40,38,4.1666,oven,clock,1111_cc_hum_0_clock_40_n03196217_585.JPEG,7.0, 4,0
40,39,2.4834,knife,bottle,1111_cc_hum_0_bottle_40_n04591713_2718.JPEG,7.0, 4,0
40,40,0.684,airplane,airplane,1111_cc_hum_0_airplane_40_n02690373_6853.JPEG,7.0, 4,0
40,41,0.6166,car,car,1111_cc_hum_0_car_40_n03100240_6805.JPEG,7.0, 1,0
40,42,4.8163,knife,clock,1111_cc_hum_0_clock_40_n04548280_2518.JPEG,7.0, 1,0
40,43,5.5998,oven,keyboard,1111_cc_hum_0_keyboard_40_n03085013_19436.JPEG,7.0, 1,0
40,44,0.7168,bear,bear,1111_cc_hum_1_bear8-bottle1.png,7.0, 1,1
40,45,1.2169,cat,cat,1111_cc_hum_1_cat5-elephant2.png,7.0, 1,1
40,46,0.3666,dog,dog,1111_cc_hum_0_dog_40_n02101388_2075.JPEG,7.0, 1,0
40,47,2.95,elephant,bear,1111_cc_hum_1_bear8-elephant2.png,7.0, 1,1
40,48,1.2837,truck,truck,1111_cc_hum_1_truck5-car1.png,7.0, 1,1
40,49,0.7007,car,car,1111_cc_hum_1_car10-bicycle2.png,7.0, 1,1
40,50,0.8169,elephant,elephant,1111_cc_hum_1_elephant8-dog1.png,7.0, 1,1
40,51,8.7158,boat,cat,1111_cc_hum_1_cat5-airplane2.png,7.0, 1,1
40,52,2.9997,knife,knife,1111_cc_hum_1_knife10-chair1.png,7.0, 1,1
40,53,2.9498,oven,boat,1111_cc_hum_1_boat7-cat3.png,7.0, 1,1
40,54,0.8673,cat,cat,1111_cc_hum_0_cat_40_n02123045_8774.JPEG,7.0, 1,0
40,55,4.2001,bird,airplane,1111_cc_hum_1_airplane1-clock1.png,7.0, 1,1
40,56,1.7167,keyboard,keyboard,1111_cc_hum_1_keyboard6-bicycle1.png,7.0, 1,1
40,57,6.0166,clock,knife,1111_cc_hum_1_knife7-car2.png,7.0, 1,1
40,58,2.0007,boat,boat,1111_cc_hum_0_boat_40_n04612504_30742.JPEG,7.0, 1,0
40,59,2.9502,oven,oven,1111_cc_hum_0_oven_40_n04111531_23215.JPEG,7.0, 1,0
40,60,0.9674,boat,boat,1111_cc_hum_0_boat_40_n02951358_2853.JPEG,7.0, 1,0
40,61,0.5839,car,car,1111_cc_hum_0_car_40_n04285008_3280.JPEG,7.0, 2,0
40,62,0.5674,elephant,elephant,1111_cc_hum_0_elephant_40_n02504013_1916.JPEG,7.0, 2,0
40,63,1.0006,truck,truck,1111_cc_hum_0_truck_40_n03417042_12133.JPEG,7.0, 2,0
40,64,0.4506,bird,bird,1111_cc_hum_1_bird9-dog2.png,7.0, 2,1
40,65,2.1668,dog,airplane,1111_cc_hum_1_airplane2-bear1.png,7.0, 2,1
40,66,1.117,bicycle,bicycle,1111_cc_hum_1_bicycle4-oven3.png,7.0, 2,1
40,67,4.3998,airplane,bicycle,1111_cc_hum_1_bicycle3-bird1.png,7.0, 2,1
40,68,2.2668,keyboard,knife,1111_cc_hum_1_knife8-bicycle1.png,7.0, 2,1
40,69,1.4338,clock,clock,1111_cc_hum_1_clock7-cat2.png,7.0, 2,1
40,70,1.2838,car,car,1111_cc_hum_1_car5-truck3.png,7.0, 2,1
40,71,0.9338,chair,chair,1111_cc_hum_0_chair_40_n03376595_2566.JPEG,7.0, 2,0
40,72,1.067,car,car,1111_cc_hum_1_car8-chair1.png,7.0, 2,1
40,73,1.267,dog,airplane,1111_cc_hum_1_airplane2-dog1.png,7.0, 2,1
40,74,0.7174,dog,dog,1111_cc_hum_1_dog1-bear1.png,7.0, 2,1
40,75,4.4,elephant,airplane,1111_cc_hum_1_airplane4-elephant1.png,7.0, 2,1
40,76,5.6663,oven,knife,1111_cc_hum_0_knife_40_n03041632_24114.JPEG,7.0, 2,0
40,77,0.467,dog,dog,1111_cc_hum_1_dog6-clock1.png,7.0, 2,1
40,78,0.7173,bear,bear,1111_cc_hum_0_bear_40_n02134084_5027.JPEG,7.0, 2,0
40,79,0.6338,chair,chair,1111_cc_hum_0_chair_40_n03376595_4469.JPEG,7.0, 2,0
40,80,6.5002,knife,bottle,1111_cc_hum_0_bottle_40_n04560804_12278.JPEG,7.0, 2,0
40,81,0.7169,bird,bird,1111_cc_hum_0_bird_40_n01843383_8077.JPEG,7.0, 6,0
40,82,1.6837,elephant,elephant,1111_cc_hum_0_elephant_40_n02504458_4336.JPEG,7.0, 6,0
40,83,10.049,airplane,bear,1111_cc_hum_0_bear_40_n02134418_4041.JPEG,7.0, 6,0
40,84,2.3837,dog,car,1111_cc_hum_1_car4-bird1.png,7.0, 6,1
40,85,0.8338,chair,chair,1111_cc_hum_1_chair10-airplane2.png,7.0, 6,1
40,86,0.5505,dog,dog,1111_cc_hum_1_dog4-oven1.png,7.0, 6,1
40,87,0.5171,car,car,1111_cc_hum_0_car_40_n02814533_23512.JPEG,7.0, 6,0
40,88,0.8170000000000001,bicycle,bicycle,1111_cc_hum_1_bicycle3-oven3.png,7.0, 6,1
40,89,0.9004,bird,bird,1111_cc_hum_1_bird5-truck2.png,7.0, 6,1
40,90,0.8667,cat,cat,1111_cc_hum_1_cat5-bottle1.png,7.0, 6,1
40,91,1.2338,bottle,bottle,1111_cc_hum_1_bottle3-cat3.png,7.0, 6,1
40,92,7.1328,boat,chair,1111_cc_hum_1_chair1-truck3.png,7.0, 6,1
40,93,0.867,bear,bear,1111_cc_hum_1_bear8-dog1.png,7.0, 6,1
40,94,2.8499,chair,chair,1111_cc_hum_0_chair_40_n04429376_9212.JPEG,7.0, 6,0
40,95,2.8169,knife,knife,1111_cc_hum_1_knife1-elephant1.png,7.0, 6,1
40,96,0.9338,elephant,elephant,1111_cc_hum_1_elephant3-keyboard2.png,7.0, 6,1
40,97,1.0669,clock,clock,1111_cc_hum_1_clock3-cat1.png,7.0, 6,1
40,98,1.0339,bottle,bottle,1111_cc_hum_0_bottle_40_n04591713_5754.JPEG,7.0, 6,0
40,99,0.6504,airplane,airplane,1111_cc_hum_0_airplane_40_n02690373_8789.JPEG,7.0, 6,0
40,100,1.2002,knife,knife,1111_cc_hum_0_knife_40_n03041632_11797.JPEG,7.0, 6,0
40,101,0.6174,boat,boat,1111_cc_hum_0_boat_40_n02951358_5718.JPEG,7.0, 7,0
40,102,0.5837,bird,bird,1111_cc_hum_0_bird_40_n01537544_2772.JPEG,7.0, 7,0
40,103,0.6838,keyboard,keyboard,1111_cc_hum_0_keyboard_40_n03085013_17762.JPEG,7.0, 7,0
40,104,0.4672,car,car,1111_cc_hum_1_car9-bicycle2.png,7.0, 7,1
40,105,8.5828,keyboard,clock,1111_cc_hum_1_clock1-bear1.png,7.0, 7,1
40,106,0.6838,bicycle,bicycle,1111_cc_hum_1_bicycle10-boat3.png,7.0, 7,1
40,107,2.2003,dog,dog,1111_cc_hum_1_dog7-keyboard3.png,7.0, 7,1
40,108,0.8005,bottle,bottle,1111_cc_hum_1_bottle3-chair3.png,7.0, 7,1
40,109,1.467,keyboard,keyboard,1111_cc_hum_1_keyboard9-airplane3.png,7.0, 7,1
40,110,0.9998,dog,dog,1111_cc_hum_0_dog_40_n02099712_5781.JPEG,7.0, 7,0
40,111,5.6497,bear,dog,1111_cc_hum_1_dog1-boat3.png,7.0, 7,1
40,112,7.4315,oven,knife,1111_cc_hum_1_knife6-oven3.png,7.0, 7,1
40,113,10.8821,car,car,1111_cc_hum_1_car10-elephant2.png,7.0, 7,1
40,114,0.4839,clock,clock,1111_cc_hum_1_clock9-airplane1.png,7.0, 7,1
40,115,0.8501,bicycle,bicycle,1111_cc_hum_0_bicycle_40_n03792782_33855.JPEG,7.0, 7,0
40,116,3.3503,keyboard,knife,1111_cc_hum_1_knife2-dog1.png,7.0, 7,1
40,117,0.6667,clock,clock,1111_cc_hum_1_clock3-car2.png,7.0, 7,1
40,118,1.2335,bottle,bottle,1111_cc_hum_0_bottle_40_n03937543_2357.JPEG,7.0, 7,0
40,119,0.8172,cat,cat,1111_cc_hum_0_cat_40_n02123159_2684.JPEG,7.0, 7,0
40,120,6.4827,bottle,oven,1111_cc_hum_0_oven_40_n04111531_10011.JPEG,7.0, 7,0
40,121,1.1671,chair,chair,1111_cc_hum_0_chair_40_n04099969_2398.JPEG,7.0, 8,0
40,122,0.7005,airplane,airplane,1111_cc_hum_0_airplane_40_n02690373_1071.JPEG,7.0, 8,0
40,123,0.8506,truck,truck,1111_cc_hum_0_truck_40_n03417042_28078.JPEG,7.0, 8,0
40,124,1.1338,bottle,dog,1111_cc_hum_1_dog2-bottle2.png,7.0, 8,1
40,125,3.1666,knife,keyboard,1111_cc_hum_0_keyboard_40_n04505470_2115.JPEG,7.0, 8,0
40,126,0.867,elephant,elephant,1111_cc_hum_1_elephant6-car3.png,7.0, 8,1
40,127,2.8001,bottle,keyboard,1111_cc_hum_1_keyboard4-truck3.png,7.0, 8,1
40,128,7.8993,clock,boat,1111_cc_hum_1_boat7-bottle1.png,7.0, 8,1
40,129,0.6168,car,car,1111_cc_hum_1_car8-bicycle2.png,7.0, 8,1
40,130,2.6835,oven,oven,1111_cc_hum_0_oven_40_n04111531_7034.JPEG,7.0, 8,0
40,131,1.5338,car,car,1111_cc_hum_1_car2-knife3.png,7.0, 8,1
40,132,1.6176,bird,dog,1111_cc_hum_1_dog1-bird1.png,7.0, 8,1
40,133,2.4672,oven,oven,1111_cc_hum_1_oven3-bear2.png,7.0, 8,1
40,134,4.3333,oven,bottle,1111_cc_hum_1_bottle7-bear1.png,7.0, 8,1
40,135,0.9838,car,car,1111_cc_hum_1_car2-cat3.png,7.0, 8,1
40,136,3.0502,keyboard,chair,1111_cc_hum_1_chair8-keyboard3.png,7.0, 8,1
40,137,0.7674,bird,bird,1111_cc_hum_1_bird8-elephant1.png,7.0, 8,1
40,138,5.7663,bear,clock,1111_cc_hum_0_clock_40_n03196217_5252.JPEG,7.0, 8,0
40,139,0.6005,car,car,1111_cc_hum_0_car_40_n02814533_82925.JPEG,7.0, 8,0
40,140,0.8501,clock,clock,1111_cc_hum_0_clock_40_n04548280_1438.JPEG,7.0, 8,0
40,141,0.3006,cat,cat,1111_cc_hum_0_cat_40_n02123045_964.JPEG,7.0, 5,0
40,142,4.5167,bottle,knife,1111_cc_hum_0_knife_40_n03041632_14224.JPEG,7.0, 5,0
40,143,0.6834,bicycle,bicycle,1111_cc_hum_0_bicycle_40_n02835271_276.JPEG,7.0, 5,0
40,144,1.1338,oven,oven,1111_cc_hum_1_oven1-boat3.png,7.0, 5,1
40,145,1.9667,bear,bear,1111_cc_hum_1_bear10-clock1.png,7.0, 5,1
40,146,1.8999,elephant,elephant,1111_cc_hum_0_elephant_40_n02504458_1848.JPEG,7.0, 5,0
40,147,3.2332,cat,cat,1111_cc_hum_1_cat5-knife2.png,7.0, 5,1
40,148,6.5331,keyboard,knife,1111_cc_hum_1_knife1-dog1.png,7.0, 5,1
40,149,0.7506,elephant,elephant,1111_cc_hum_1_elephant4-clock3.png,7.0, 5,1
40,150,1.2671,boat,boat,1111_cc_hum_0_boat_40_n02951358_4826.JPEG,7.0, 5,0
40,151,1.6006,dog,cat,1111_cc_hum_1_cat10-bird2.png,7.0, 5,1
40,152,4.9497,boat,airplane,1111_cc_hum_1_airplane6-chair3.png,7.0, 5,1
40,153,2.5838,car,truck,1111_cc_hum_1_truck2-chair1.png,7.0, 5,1
40,154,0.6503,elephant,elephant,1111_cc_hum_1_elephant8-clock2.png,7.0, 5,1
40,155,1.9671,bear,bear,1111_cc_hum_1_bear10-knife2.png,7.0, 5,1
40,156,4.2333,oven,boat,1111_cc_hum_1_boat3-car3.png,7.0, 5,1
40,157,3.95,knife,keyboard,1111_cc_hum_1_keyboard3-bicycle2.png,7.0, 5,1
40,158,0.7005,truck,truck,1111_cc_hum_0_truck_40_n03417042_14000.JPEG,7.0, 5,0
40,159,0.6345,bear,bear,1111_cc_hum_0_bear_40_n02133161_2137.JPEG,7.0, 5,0
40,160,1.2007,bird,dog,1111_cc_hum_0_dog_40_n02102318_11816.JPEG,7.0, 5,0
40,161,1.3668,boat,boat,1111_cc_hum_0_boat_40_n04273569_13091.JPEG,7.0, 9,0
40,162,0.5173,chair,chair,1111_cc_hum_0_chair_40_n04429376_18127.JPEG,7.0, 9,0
40,163,1.0837,keyboard,keyboard,1111_cc_hum_0_keyboard_40_n03085013_2122.JPEG,7.0, 9,0
40,164,0.5006,elephant,elephant,1111_cc_hum_1_elephant4-oven1.png,7.0, 9,1
40,165,1.6335,bottle,keyboard,1111_cc_hum_1_keyboard9-truck3.png,7.0, 9,1
40,166,0.8836,airplane,airplane,1111_cc_hum_1_airplane1-chair2.png,7.0, 9,1
40,167,5.0497,cat,bird,1111_cc_hum_1_bird10-elephant2.png,7.0, 9,1
40,168,1.6833,elephant,elephant,1111_cc_hum_1_elephant7-keyboard3.png,7.0, 9,1
40,169,7.6161,bird,bicycle,1111_cc_hum_1_bicycle3-elephant2.png,7.0, 9,1
40,170,1.0167,bird,bird,1111_cc_hum_1_bird6-car3.png,7.0, 9,1
40,171,0.5670000000000001,clock,clock,1111_cc_hum_1_clock8-airplane2.png,7.0, 9,1
40,172,2.9333,knife,keyboard,1111_cc_hum_1_keyboard4-cat2.png,7.0, 9,1
40,173,0.6838,bear,bear,1111_cc_hum_1_bear9-knife2.png,7.0, 9,1
40,174,0.8507,dog,dog,1111_cc_hum_0_dog_40_n02110806_16707.JPEG,7.0, 9,0
40,175,8.7661,bottle,knife,1111_cc_hum_0_knife_40_n03041632_26340.JPEG,7.0, 9,0
40,176,0.5175,elephant,elephant,1111_cc_hum_1_elephant7-knife2.png,7.0, 9,1
40,177,4.1666,oven,chair,1111_cc_hum_1_chair5-cat3.png,7.0, 9,1
40,178,3.9499,bottle,bottle,1111_cc_hum_0_bottle_40_n04579145_1302.JPEG,7.0, 9,0
40,179,5.5164,keyboard,clock,1111_cc_hum_0_clock_40_n03196217_5478.JPEG,7.0, 9,0
40,180,6.8167,bottle,knife,1111_cc_hum_0_knife_40_n03041632_21723.JPEG,7.0, 9,0
40,181,0.7161,bear,bear,1111_cc_hum_0_bear_40_n02134418_4895.JPEG,7.0, 10,0
40,182,5.0999,clock,clock,1111_cc_hum_0_clock_40_n03196217_3943.JPEG,7.0, 10,0
40,183,0.4172,elephant,elephant,1111_cc_hum_0_elephant_40_n02504458_4.JPEG,7.0, 10,0
40,184,1.4168,chair,chair,1111_cc_hum_0_chair_40_n04429376_19101.JPEG,7.0, 10,0
40,185,2.9336,elephant,airplane,1111_cc_hum_1_airplane8-bicycle3.png,7.0, 10,1
40,186,1.0505,cat,cat,1111_cc_hum_1_cat5-dog3.png,7.0, 10,1
40,187,5.6495,keyboard,boat,1111_cc_hum_1_boat9-bird1.png,7.0, 10,1
40,188,0.7668,car,car,1111_cc_hum_1_car1-airplane1.png,7.0, 10,1
40,189,2.8836,boat,boat,1111_cc_hum_1_boat3-airplane2.png,7.0, 10,1
40,190,1.2676,clock,boat,1111_cc_hum_1_boat2-bird1.png,7.0, 10,1
40,191,10.6156,bottle,boat,1111_cc_hum_1_boat6-dog1.png,7.0, 10,1
40,192,0.9835,clock,clock,1111_cc_hum_1_clock3-bear3.png,7.0, 10,1
40,193,2.7838,knife,keyboard,1111_cc_hum_1_keyboard7-knife1.png,7.0, 10,1
40,194,0.5668,car,car,1111_cc_hum_0_car_40_n02814533_32461.JPEG,7.0, 10,0
40,195,0.4839,dog,dog,1111_cc_hum_1_dog9-bottle1.png,7.0, 10,1
40,196,0.7005,bicycle,bicycle,1111_cc_hum_1_bicycle5-car3.png,7.0, 10,1
40,197,0.4338,elephant,elephant,1111_cc_hum_1_elephant1-boat2.png,7.0, 10,1
40,198,0.7337,elephant,cat,1111_cc_hum_0_cat_40_n02124075_8351.JPEG,7.0, 10,0
40,199,1.4336,elephant,oven,1111_cc_hum_0_oven_40_n04111531_9712.JPEG,7.0, 10,0
40,200,2.1005,airplane,airplane,1111_cc_hum_0_airplane_40_n02690373_19152.JPEG,7.0, 10,0
40,201,0.5503,boat,boat,1111_cc_hum_0_boat_40_n04612504_8942.JPEG,7.0, 11,0
40,202,0.9506,truck,truck,1111_cc_hum_0_truck_40_n03417042_19905.JPEG,7.0, 11,0
40,203,0.6675,truck,truck,1111_cc_hum_0_truck_40_n03417042_16389.JPEG,7.0, 11,0
40,204,1.2501,oven,oven,1111_cc_hum_0_oven_40_n04111531_9490.JPEG,7.0, 11,0
40,205,2.7169,bear,clock,1111_cc_hum_1_clock1-boat3.png,7.0, 11,1
40,206,1.4835,oven,oven,1111_cc_hum_1_oven2-truck3.png,7.0, 11,1
40,207,0.7167,bicycle,bicycle,1111_cc_hum_0_bicycle_40_n03792782_692.JPEG,7.0, 11,0
40,208,1.5171,cat,cat,1111_cc_hum_1_cat5-chair3.png,7.0, 11,1
40,209,2.6835,airplane,airplane,1111_cc_hum_1_airplane5-bicycle1.png,7.0, 11,1
40,210,0.9173,elephant,elephant,1111_cc_hum_1_elephant1-bottle1.png,7.0, 11,1
40,211,3.1,bird,knife,1111_cc_hum_1_knife6-boat3.png,7.0, 11,1
40,212,1.3502,bottle,bottle,1111_cc_hum_1_bottle9-keyboard1.png,7.0, 11,1
40,213,3.7335,clock,bird,1111_cc_hum_1_bird8-keyboard2.png,7.0, 11,1
40,214,7.7662,chair,boat,1111_cc_hum_1_boat3-clock3.png,7.0, 11,1
40,215,1.1171,truck,truck,1111_cc_hum_1_truck10-bicycle1.png,7.0, 11,1
40,216,1.8504,bicycle,bicycle,1111_cc_hum_1_bicycle9-chair1.png,7.0, 11,1
40,217,1.467,boat,chair,1111_cc_hum_1_chair5-bird1.png,7.0, 11,1
40,218,0.4669,bicycle,bicycle,1111_cc_hum_0_bicycle_40_n03792782_3467.JPEG,7.0, 11,0
40,219,0.3839,elephant,elephant,1111_cc_hum_0_elephant_40_n02504013_6660.JPEG,7.0, 11,0
40,220,0.4176,cat,cat,1111_cc_hum_0_cat_40_n02124075_14094.JPEG,7.0, 11,0
40,221,0.2341,car,car,1111_cc_hum_0_car_40_n03100240_6954.JPEG,7.0, 12,0
40,222,0.3007,bird,bird,1111_cc_hum_0_bird_40_n01532829_22520.JPEG,7.0, 12,0
40,223,0.4002,airplane,airplane,1111_cc_hum_0_airplane_40_n02690373_4728.JPEG,7.0, 12,0
40,224,5.6664,boat,knife,1111_cc_hum_1_knife2-car3.png,7.0, 12,1
40,225,1.2335,bottle,keyboard,1111_cc_hum_1_keyboard10-oven3.png,7.0, 12,1
40,226,0.4668,bird,bird,1111_cc_hum_1_bird9-bear3.png,7.0, 12,1
40,227,0.6669,keyboard,keyboard,1111_cc_hum_0_keyboard_40_n04505470_1430.JPEG,7.0, 12,0
40,228,0.9337,bear,bear,1111_cc_hum_1_bear4-oven2.png,7.0, 12,1
40,229,9.466,bottle,cat,1111_cc_hum_1_cat10-elephant3.png,7.0, 12,1
40,230,0.5005,elephant,elephant,1111_cc_hum_1_elephant3-cat2.png,7.0, 12,1
40,231,0.8838,bird,bird,1111_cc_hum_1_bird10-clock1.png,7.0, 12,1
40,232,0.4006,bicycle,bicycle,1111_cc_hum_1_bicycle7-clock3.png,7.0, 12,1
40,233,0.9838,bicycle,bicycle,1111_cc_hum_1_bicycle4-truck3.png,7.0, 12,1
40,234,0.7669,elephant,elephant,1111_cc_hum_1_elephant2-bottle3.png,7.0, 12,1
40,235,2.2336,knife,knife,1111_cc_hum_1_knife2-bear2.png,7.0, 12,1
40,236,2.4836,dog,dog,1111_cc_hum_0_dog_40_n02108000_324.JPEG,7.0, 12,0
40,237,1.2337,bicycle,bicycle,1111_cc_hum_1_bicycle1-dog3.png,7.0, 12,1
40,238,0.7837,bear,bear,1111_cc_hum_0_bear_40_n02132136_6787.JPEG,7.0, 12,0
40,239,1.8671,bottle,bottle,1111_cc_hum_0_bottle_40_n04560804_32398.JPEG,7.0, 12,0
40,240,8.3496,bear,bird,1111_cc_hum_0_bird_40_n02033041_6633.JPEG,7.0, 12,0
40,241,0.4506,bear,bear,1111_cc_hum_0_bear_40_n02132136_1934.JPEG,7.0, 13,0
40,242,0.4337,chair,chair,1111_cc_hum_0_chair_40_n04099969_2267.JPEG,7.0, 13,0
40,243,0.9171,truck,truck,1111_cc_hum_0_truck_40_n03417042_10043.JPEG,7.0, 13,0
40,244,0.5339,chair,chair,1111_cc_hum_1_chair9-bird3.png,7.0, 13,1
40,245,0.7841,truck,truck,1111_cc_hum_1_truck2-car3.png,7.0, 13,1
40,246,0.6336,clock,clock,1111_cc_hum_1_clock9-chair3.png,7.0, 13,1
40,247,0.3506,cat,cat,1111_cc_hum_0_cat_40_n02123394_2364.JPEG,7.0, 13,0
40,248,0.3837,elephant,elephant,1111_cc_hum_1_elephant9-bicycle2.png,7.0, 13,1
40,249,0.5836,dog,dog,1111_cc_hum_1_dog4-chair1.png,7.0, 13,1
40,250,8.1327,keyboard,car,1111_cc_hum_1_car1-chair3.png,7.0, 13,1
40,251,0.6335,clock,clock,1111_cc_hum_1_clock6-bird3.png,7.0, 13,1
40,252,0.8168,bird,bird,1111_cc_hum_1_bird6-airplane2.png,7.0, 13,1
40,253,1.0502,chair,chair,1111_cc_hum_1_chair1-cat3.png,7.0, 13,1
40,254,0.4669,elephant,elephant,1111_cc_hum_1_elephant9-boat3.png,7.0, 13,1
40,255,2.4836,truck,truck,1111_cc_hum_1_truck8-elephant1.png,7.0, 13,1
40,256,1.6837,bird,bird,1111_cc_hum_1_bird1-elephant2.png,7.0, 13,1
40,257,3.2004,boat,airplane,1111_cc_hum_0_airplane_40_n02690373_3874.JPEG,7.0, 13,0
40,258,1.8169,oven,oven,1111_cc_hum_0_oven_40_n04111531_9844.JPEG,7.0, 13,0
40,259,5.0831,car,clock,1111_cc_hum_0_clock_40_n04548280_7490.JPEG,7.0, 13,0
40,260,1.7006,oven,oven,1111_cc_hum_0_oven_40_n04111531_14611.JPEG,7.0, 13,0
40,261,3.6832,bicycle,bicycle,1111_cc_hum_0_bicycle_40_n03792782_3047.JPEG,7.0, 14,0
40,262,0.7507,bird,bird,1111_cc_hum_0_bird_40_n02007558_10725.JPEG,7.0, 14,0
40,263,1.4668,boat,boat,1111_cc_hum_0_boat_40_n02951358_34441.JPEG,7.0, 14,0
40,264,2.0837,cat,bear,1111_cc_hum_1_bear6-clock1.png,7.0, 14,1
40,265,24.897,airplane,keyboard,1111_cc_hum_1_keyboard9-boat2.png,7.0, 14,1
40,266,2.5497,oven,cat,1111_cc_hum_1_cat3-oven2.png,7.0, 14,1
40,267,0.7504,truck,truck,1111_cc_hum_1_truck2-airplane3.png,7.0, 14,1
40,268,1.4169999999999998,keyboard,keyboard,1111_cc_hum_1_keyboard1-clock1.png,7.0, 14,1
40,269,3.3669,keyboard,airplane,1111_cc_hum_1_airplane9-keyboard2.png,7.0, 14,1
40,270,1.5007,elephant,elephant,1111_cc_hum_0_elephant_40_n02504458_7013.JPEG,7.0, 14,0
40,271,2.1506,bird,bear,1111_cc_hum_1_bear2-keyboard2.png,7.0, 14,1
40,272,1.1838,bottle,bottle,1111_cc_hum_1_bottle1-cat3.png,7.0, 14,1
40,273,5.2663,boat,oven,1111_cc_hum_1_oven7-dog2.png,7.0, 14,1
40,274,1.8839,elephant,elephant,1111_cc_hum_1_elephant9-airplane2.png,7.0, 14,1
40,275,1.5171,car,car,1111_cc_hum_0_car_40_n03100240_418.JPEG,7.0, 14,0
40,276,9.216,chair,truck,1111_cc_hum_1_truck3-bicycle1.png,7.0, 14,1
40,277,5.433,bottle,boat,1111_cc_hum_1_boat5-car3.png,7.0, 14,1
40,278,0.6673,bicycle,bicycle,1111_cc_hum_0_bicycle_40_n03792782_17337.JPEG,7.0, 14,0
40,279,0.3673,car,car,1111_cc_hum_0_car_40_n04285008_9470.JPEG,7.0, 14,0
40,280,2.3167,keyboard,keyboard,1111_cc_hum_0_keyboard_40_n03085013_4160.JPEG,7.0, 14,0
40,281,0.55,bottle,bottle,1111_cc_hum_0_bottle_40_n02823428_825.JPEG,7.0, 15,0
40,282,0.5172,truck,truck,1111_cc_hum_0_truck_40_n04467665_50932.JPEG,7.0, 15,0
40,283,2.6837,bird,elephant,1111_cc_hum_0_elephant_40_n02504013_8385.JPEG,7.0, 15,0
40,284,0.7506,bear,bear,1111_cc_hum_0_bear_40_n02134084_6343.JPEG,7.0, 15,0
40,285,0.6005,cat,cat,1111_cc_hum_1_cat2-bottle3.png,7.0, 15,1
40,286,1.1337,clock,clock,1111_cc_hum_1_clock6-knife2.png,7.0, 15,1
40,287,0.9167,elephant,elephant,1111_cc_hum_1_elephant8-boat2.png,7.0, 15,1
40,288,2.1335,chair,boat,1111_cc_hum_1_boat2-oven3.png,7.0, 15,1
40,289,3.6169,chair,airplane,1111_cc_hum_1_airplane8-truck3.png,7.0, 15,1
40,290,2.7499,keyboard,clock,1111_cc_hum_1_clock1-truck3.png,7.0, 15,1
40,291,1.1674,bottle,knife,1111_cc_hum_1_knife9-bottle2.png,7.0, 15,1
40,292,10.816,knife,knife,1111_cc_hum_0_knife_40_n03041632_4808.JPEG,7.0, 15,0
40,293,8.9494,clock,oven,1111_cc_hum_1_oven6-knife3.png,7.0, 15,1
40,294,1.3337,car,car,1111_cc_hum_1_car10-dog1.png,7.0, 15,1
40,295,20.3982,oven,cat,1111_cc_hum_1_cat10-clock1.png,7.0, 15,1
40,296,22.0477,knife,dog,1111_cc_hum_1_dog9-car1.png,7.0, 15,1
40,297,2.2338,car,car,1111_cc_hum_1_car5-knife2.png,7.0, 15,1
40,298,1.9172,boat,boat,1111_cc_hum_0_boat_40_n02951358_15424.JPEG,7.0, 15,0
40,299,0.5008,dog,dog,1111_cc_hum_0_dog_40_n02097130_1834.JPEG,7.0, 15,0
40,300,1.0837,airplane,airplane,1111_cc_hum_0_airplane_40_n02690373_4243.JPEG,7.0, 15,0
40,301,2.0841,bottle,bottle,1111_cc_hum_0_bottle_40_n04560804_13773.JPEG,7.0, 16,0
40,302,8.3658,boat,knife,1111_cc_hum_0_knife_40_n03041632_105081.JPEG,7.0, 16,0
40,303,1.5171,keyboard,keyboard,1111_cc_hum_0_keyboard_40_n03085013_1483.JPEG,7.0, 16,0
40,304,4.933,clock,knife,1111_cc_hum_1_knife5-oven2.png,7.0, 16,1
40,305,1.317,oven,oven,1111_cc_hum_1_oven5-keyboard2.png,7.0, 16,1
40,306,0.9005,car,car,1111_cc_hum_1_car4-bear3.png,7.0, 16,1
40,307,0.7004,bottle,bottle,1111_cc_hum_1_bottle8-bicycle1.png,7.0, 16,1
40,308,0.6507,car,car,1111_cc_hum_1_car3-elephant3.png,7.0, 16,1
40,309,0.8006,dog,dog,1111_cc_hum_0_dog_40_n02112018_370.JPEG,7.0, 16,0
40,310,3.3501,dog,bicycle,1111_cc_hum_1_bicycle2-dog1.png,7.0, 16,1
40,311,1.9172,bird,truck,1111_cc_hum_1_truck1-cat1.png,7.0, 16,1
40,312,1.5335,dog,dog,1111_cc_hum_1_dog4-bird1.png,7.0, 16,1
40,313,1.1337,truck,truck,1111_cc_hum_1_truck1-bear1.png,7.0, 16,1
40,314,0.6839,chair,chair,1111_cc_hum_1_chair4-truck2.png,7.0, 16,1
40,315,2.8332,bird,dog,1111_cc_hum_1_dog3-bear3.png,7.0, 16,1
40,316,0.9669,bird,bird,1111_cc_hum_0_bird_40_n01601694_13334.JPEG,7.0, 16,0
40,317,1.2502,bottle,keyboard,1111_cc_hum_1_keyboard6-bottle2.png,7.0, 16,1
40,318,0.7004,chair,chair,1111_cc_hum_0_chair_40_n03376595_4309.JPEG,7.0, 16,0
40,319,5.3165,clock,clock,1111_cc_hum_0_clock_40_n03196217_6809.JPEG,7.0, 16,0
40,320,0.5506,cat,cat,1111_cc_hum_0_cat_40_n02123159_3330.JPEG,7.0, 16,0
40,321,0.5339,elephant,elephant,1111_cc_hum_0_elephant_40_n02504013_19694.JPEG,7.0, 17,0
40,322,0.5167,dog,dog,1111_cc_hum_0_dog_40_n02106382_14862.JPEG,7.0, 17,0
40,323,2.1171,bear,bear,1111_cc_hum_0_bear_40_n02134418_703.JPEG,7.0, 17,0
40,324,11.3323,cat,knife,1111_cc_hum_1_knife10-keyboard3.png,7.0, 17,1
40,325,1.9667,car,car,1111_cc_hum_1_car2-bird3.png,7.0, 17,1
40,326,0.7171,clock,clock,1111_cc_hum_1_clock3-elephant3.png,7.0, 17,1
40,327,6.7826,chair,dog,1111_cc_hum_1_dog10-keyboard2.png,7.0, 17,1
40,328,3.1831,knife,boat,1111_cc_hum_1_boat4-dog2.png,7.0, 17,1
40,329,1.4171,bear,bear,1111_cc_hum_1_bear3-chair2.png,7.0, 17,1
40,330,2.9833,bicycle,oven,1111_cc_hum_1_oven6-truck1.png,7.0, 17,1
40,331,3.3831,oven,knife,1111_cc_hum_1_knife2-elephant2.png,7.0, 17,1
40,332,1.7334,dog,dog,1111_cc_hum_1_dog8-clock2.png,7.0, 17,1
40,333,3.6,bottle,bottle,1111_cc_hum_1_bottle3-knife3.png,7.0, 17,1
40,334,0.617,elephant,elephant,1111_cc_hum_0_elephant_40_n02504458_3140.JPEG,7.0, 17,0
40,335,0.8336,bicycle,bicycle,1111_cc_hum_0_bicycle_40_n02835271_13131.JPEG,7.0, 17,0
40,336,2.1004,truck,truck,1111_cc_hum_1_truck2-bicycle2.png,7.0, 17,1
40,337,3.2163,bear,bear,1111_cc_hum_1_bear7-oven3.png,7.0, 17,1
40,338,0.7002,chair,chair,1111_cc_hum_0_chair_40_n04099969_18182.JPEG,7.0, 17,0
40,339,3.3664,oven,oven,1111_cc_hum_0_oven_40_n04111531_11530.JPEG,7.0, 17,0
40,340,1.567,bear,bear,1111_cc_hum_0_bear_40_n02134418_4886.JPEG,7.0, 17,0
40,341,0.5838,bicycle,bicycle,1111_cc_hum_0_bicycle_40_n03792782_3631.JPEG,7.0, 18,0
40,342,1.4671,airplane,airplane,1111_cc_hum_0_airplane_40_n02690373_2024.JPEG,7.0, 18,0
40,343,0.6501,airplane,airplane,1111_cc_hum_0_airplane_40_n02690373_2070.JPEG,7.0, 18,0
40,344,1.0171,car,truck,1111_cc_hum_1_truck3-car3.png,7.0, 18,1
40,345,1.4668,clock,clock,1111_cc_hum_0_clock_40_n03196217_4417.JPEG,7.0, 18,0
40,346,6.3493,oven,oven,1111_cc_hum_1_oven3-truck1.png,7.0, 18,1
40,347,0.8,bottle,boat,1111_cc_hum_1_boat2-bottle2.png,7.0, 18,1
40,348,4.5336,boat,chair,1111_cc_hum_1_chair8-knife2.png,7.0, 18,1
40,349,4.0666,knife,knife,1111_cc_hum_0_knife_40_n03041632_83826.JPEG,7.0, 18,0
40,350,2.0168,truck,truck,1111_cc_hum_1_truck3-bird2.png,7.0, 18,1
40,351,3.2503,knife,knife,1111_cc_hum_1_knife9-bicycle1.png,7.0, 18,1
40,352,0.7006,cat,cat,1111_cc_hum_1_cat1-car2.png,7.0, 18,1
40,353,2.3173,elephant,elephant,1111_cc_hum_1_elephant2-boat1.png,7.0, 18,1
40,354,0.5674,cat,cat,1111_cc_hum_1_cat9-bird3.png,7.0, 18,1
40,355,1.5338,keyboard,keyboard,1111_cc_hum_1_keyboard8-oven1.png,7.0, 18,1
40,356,2.0334,dog,boat,1111_cc_hum_1_boat10-cat1.png,7.0, 18,1
40,357,4.5332,airplane,elephant,1111_cc_hum_1_elephant2-keyboard3.png,7.0, 18,1
40,358,0.8176,truck,truck,1111_cc_hum_0_truck_40_n03796401_15756.JPEG,7.0, 18,0
40,359,0.4507,bird,bird,1111_cc_hum_0_bird_40_n02037110_8732.JPEG,7.0, 18,0
40,360,1.7504,knife,knife,1111_cc_hum_0_knife_40_n03041632_17338.JPEG,7.0, 18,0
40,361,0.6339,cat,cat,1111_cc_hum_0_cat_40_n02124075_8754.JPEG,7.0, 19,0
40,362,0.6171,boat,boat,1111_cc_hum_0_boat_40_n04612504_7166.JPEG,7.0, 19,0
40,363,0.884,bird,bird,1111_cc_hum_0_bird_40_n02025239_22501.JPEG,7.0, 19,0
40,364,7.1832,cat,oven,1111_cc_hum_0_oven_40_n04111531_2371.JPEG,7.0, 19,0
40,365,2.8666,oven,knife,1111_cc_hum_1_knife7-chair2.png,7.0, 19,1
40,366,4.1665,chair,airplane,1111_cc_hum_1_airplane8-clock2.png,7.0, 19,1
40,367,0.8837,chair,chair,1111_cc_hum_1_chair7-boat3.png,7.0, 19,1
40,368,6.3828,bear,airplane,1111_cc_hum_1_airplane3-elephant1.png,7.0, 19,1
40,369,1.1505,bird,bird,1111_cc_hum_1_bird2-airplane3.png,7.0, 19,1
40,370,0.8334,bottle,bottle,1111_cc_hum_1_bottle5-truck1.png,7.0, 19,1
40,371,2.2336,elephant,oven,1111_cc_hum_1_oven9-bear2.png,7.0, 19,1
40,372,1.7006,car,car,1111_cc_hum_1_car7-dog3.png,7.0, 19,1
40,373,1.1840000000000002,bottle,bottle,1111_cc_hum_0_bottle_40_n04591713_6238.JPEG,7.0, 19,0
40,374,0.4335,cat,cat,1111_cc_hum_1_cat1-dog1.png,7.0, 19,1
40,375,8.0828,clock,oven,1111_cc_hum_1_oven7-clock2.png,7.0, 19,1
40,376,0.9174,bear,bear,1111_cc_hum_1_bear10-bottle1.png,7.0, 19,1
40,377,1.3341,elephant,elephant,1111_cc_hum_1_elephant8-cat1.png,7.0, 19,1
40,378,0.8170000000000001,bottle,bottle,1111_cc_hum_0_bottle_40_n04560804_9813.JPEG,7.0, 19,0
40,379,1.1505,dog,dog,1111_cc_hum_0_dog_40_n02113624_1203.JPEG,7.0, 19,0
40,380,2.9333,truck,truck,1111_cc_hum_0_truck_40_n04467665_11776.JPEG,7.0, 19,0
40,381,1.2837,keyboard,keyboard,1111_cc_hum_0_keyboard_40_n04505470_2570.JPEG,7.0, 20,0
40,382,0.5668,cat,cat,1111_cc_hum_0_cat_40_n02123045_9341.JPEG,7.0, 20,0
40,383,2.9001,knife,chair,1111_cc_hum_0_chair_40_n04099969_13056.JPEG,7.0, 20,0
40,384,0.5005,chair,chair,1111_cc_hum_1_chair10-bottle3.png,7.0, 20,1
40,385,8.3494,bottle,keyboard,1111_cc_hum_1_keyboard1-airplane2.png,7.0, 20,1
40,386,4.8165,bicycle,keyboard,1111_cc_hum_1_keyboard9-bear2.png,7.0, 20,1
40,387,0.6837,clock,clock,1111_cc_hum_1_clock4-boat3.png,7.0, 20,1
40,388,0.9499,bear,bear,1111_cc_hum_1_bear1-airplane3.png,7.0, 20,1
40,389,0.8839,bicycle,bicycle,1111_cc_hum_1_bicycle1-oven1.png,7.0, 20,1
40,390,1.0171,dog,bear,1111_cc_hum_1_bear1-bicycle3.png,7.0, 20,1
40,391,0.6171,elephant,elephant,1111_cc_hum_1_elephant1-car3.png,7.0, 20,1
40,392,0.6835,clock,clock,1111_cc_hum_1_clock2-bear2.png,7.0, 20,1
40,393,1.1502,boat,boat,1111_cc_hum_0_boat_40_n03344393_302.JPEG,7.0, 20,0
40,394,0.5668,car,car,1111_cc_hum_1_car8-cat1.png,7.0, 20,1
40,395,0.9337,bottle,bottle,1111_cc_hum_1_bottle5-knife1.png,7.0, 20,1
40,396,4.6334,bottle,car,1111_cc_hum_1_car6-chair3.png,7.0, 20,1
40,397,0.9338,keyboard,keyboard,1111_cc_hum_0_keyboard_40_n03085013_25181.JPEG,7.0, 20,0
40,398,2.5501,clock,clock,1111_cc_hum_0_clock_40_n02708093_3459.JPEG,7.0, 20,0
40,399,0.9834,car,car,1111_cc_hum_0_car_40_n04285008_2789.JPEG,7.0, 20,0
40,400,0.6505,car,car,1111_cc_hum_0_car_40_n02814533_18458.JPEG,7.0, 20,0
71,1,0.6836,knife,knife,1111_cc_hum_0_knife_40_n03041632_24277.JPEG,7.0, 3,0
71,2,0.4171,cat,cat,1111_cc_hum_0_cat_40_n02124075_9716.JPEG,7.0, 3,0
71,3,0.4672,bear,bear,1111_cc_hum_0_bear_40_n02134084_2004.JPEG,7.0, 3,0
71,4,0.9003,truck,truck,1111_cc_hum_1_truck2-boat3.png,7.0, 3,1
71,5,1.7165,chair,chair,1111_cc_hum_1_chair7-truck3.png,7.0, 3,1
71,6,0.8171,bicycle,bicycle,1111_cc_hum_1_bicycle1-clock3.png,7.0, 3,1
71,7,3.5166,cat,clock,1111_cc_hum_1_clock9-cat1.png,7.0, 3,1
71,8,0.8333,bottle,bottle,1111_cc_hum_1_bottle9-truck1.png,7.0, 3,1
71,9,0.6835,car,car,1111_cc_hum_1_car10-keyboard2.png,7.0, 3,1
71,10,0.5841,truck,truck,1111_cc_hum_0_truck_40_n03796401_4309.JPEG,7.0, 3,0
71,11,5.8664,keyboard,keyboard,1111_cc_hum_0_keyboard_40_n04505470_933.JPEG,7.0, 3,0
71,12,0.8839,elephant,elephant,1111_cc_hum_1_elephant5-bottle2.png,7.0, 3,1
71,13,0.7671,car,car,1111_cc_hum_1_car4-boat1.png,7.0, 3,1
71,14,7.0996,bottle,bird,1111_cc_hum_1_bird1-oven1.png,7.0, 3,1
71,15,1.4337,chair,chair,1111_cc_hum_1_chair9-boat2.png,7.0, 3,1
71,16,3.1168,elephant,elephant,1111_cc_hum_1_elephant2-bird1.png,7.0, 3,1
71,17,0.5172,cat,cat,1111_cc_hum_1_cat1-airplane1.png,7.0, 3,1
71,18,0.5504,dog,dog,1111_cc_hum_0_dog_40_n02088632_2814.JPEG,7.0, 3,0
71,19,0.5672,bicycle,bicycle,1111_cc_hum_0_bicycle_40_n03792782_52601.JPEG,7.0, 3,0
71,20,2.1833,oven,oven,1111_cc_hum_0_oven_40_n04111531_1054.JPEG,7.0, 3,0
71,21,0.4174,elephant,elephant,1111_cc_hum_0_elephant_40_n02504458_4954.JPEG,7.0, 4,0
71,22,5.1498,oven,clock,1111_cc_hum_0_clock_40_n03196217_585.JPEG,7.0, 4,0
71,23,0.6502,bicycle,bicycle,1111_cc_hum_0_bicycle_40_n03792782_14216.JPEG,7.0, 4,0
71,24,0.4673,dog,dog,1111_cc_hum_1_dog5-bear3.png,7.0, 4,1
71,25,1.5669,elephant,elephant,1111_cc_hum_1_elephant10-knife3.png,7.0, 4,1
71,26,2.0505,elephant,boat,1111_cc_hum_1_boat7-keyboard3.png,7.0, 4,1
71,27,4.7331,bottle,boat,1111_cc_hum_1_boat6-car1.png,7.0, 4,1
71,28,15.1152,clock,clock,1111_cc_hum_1_clock6-chair3.png,7.0, 4,1
71,29,0.8169,chair,chair,1111_cc_hum_1_chair10-bird3.png,7.0, 4,1
71,30,0.6006,truck,truck,1111_cc_hum_1_truck1-knife1.png,7.0, 4,1
71,31,0.8003,bottle,bottle,1111_cc_hum_0_bottle_40_n04591713_2718.JPEG,7.0, 4,0
71,32,1.3505,airplane,airplane,1111_cc_hum_0_airplane_40_n02690373_6853.JPEG,7.0, 4,0
71,33,0.767,clock,clock,1111_cc_hum_1_clock4-airplane1.png,7.0, 4,1
71,34,0.5005,clock,clock,1111_cc_hum_1_clock2-knife1.png,7.0, 4,1
71,35,1.0503,truck,truck,1111_cc_hum_1_truck2-bottle3.png,7.0, 4,1
71,36,4.4332,boat,bear,1111_cc_hum_1_bear9-keyboard3.png,7.0, 4,1
71,37,0.767,chair,chair,1111_cc_hum_1_chair4-oven2.png,7.0, 4,1
71,38,0.7337,bird,bird,1111_cc_hum_0_bird_40_n01530575_4260.JPEG,7.0, 4,0
71,39,0.7339,airplane,airplane,1111_cc_hum_0_airplane_40_n02690373_6999.JPEG,7.0, 4,0
71,40,1.0168,bird,bird,1111_cc_hum_0_bird_40_n02037110_11551.JPEG,7.0, 4,0
71,41,1.3502,clock,clock,1111_cc_hum_0_clock_40_n04548280_2518.JPEG,7.0, 1,0
71,42,0.4006,boat,boat,1111_cc_hum_0_boat_40_n02951358_2853.JPEG,7.0, 1,0
71,43,0.6172,boat,boat,1111_cc_hum_0_boat_40_n04612504_30742.JPEG,7.0, 1,0
71,44,10.7825,cat,boat,1111_cc_hum_1_boat7-cat3.png,7.0, 1,1
71,45,0.3335,dog,dog,1111_cc_hum_0_dog_40_n02101388_2075.JPEG,7.0, 1,0
71,46,18.5813,oven,knife,1111_cc_hum_1_knife7-car2.png,7.0, 1,1
71,47,3.8499,oven,knife,1111_cc_hum_1_knife10-chair1.png,7.0, 1,1
71,48,1.617,elephant,bear,1111_cc_hum_1_bear8-elephant2.png,7.0, 1,1
71,49,0.9004,elephant,elephant,1111_cc_hum_1_elephant8-dog1.png,7.0, 1,1
71,50,1.2336,boat,cat,1111_cc_hum_1_cat5-airplane2.png,7.0, 1,1
71,51,0.7835,airplane,airplane,1111_cc_hum_1_airplane1-clock1.png,7.0, 1,1
71,52,0.9335,truck,truck,1111_cc_hum_1_truck5-car1.png,7.0, 1,1
71,53,2.75,keyboard,keyboard,1111_cc_hum_1_keyboard6-bicycle1.png,7.0, 1,1
71,54,0.8503,bear,bear,1111_cc_hum_1_bear8-bottle1.png,7.0, 1,1
71,55,0.4005,car,car,1111_cc_hum_0_car_40_n03100240_6805.JPEG,7.0, 1,0
71,56,1.1335,elephant,cat,1111_cc_hum_1_cat5-elephant2.png,7.0, 1,1
71,57,0.6506,car,car,1111_cc_hum_1_car10-bicycle2.png,7.0, 1,1
71,58,0.7005,keyboard,keyboard,1111_cc_hum_0_keyboard_40_n03085013_19436.JPEG,7.0, 1,0
71,59,1.1003,oven,oven,1111_cc_hum_0_oven_40_n04111531_23215.JPEG,7.0, 1,0
71,60,0.4837,cat,cat,1111_cc_hum_0_cat_40_n02123045_8774.JPEG,7.0, 1,0
71,61,0.6004,chair,chair,1111_cc_hum_0_chair_40_n03376595_2566.JPEG,7.0, 2,0
71,62,1.267,truck,truck,1111_cc_hum_0_truck_40_n03417042_12133.JPEG,7.0, 2,0
71,63,4.133,oven,knife,1111_cc_hum_0_knife_40_n03041632_24114.JPEG,7.0, 2,0
71,64,0.9838,elephant,airplane,1111_cc_hum_1_airplane4-elephant1.png,7.0, 2,1
71,65,0.6335,car,car,1111_cc_hum_1_car8-chair1.png,7.0, 2,1
71,66,1.6835,keyboard,knife,1111_cc_hum_1_knife8-bicycle1.png,7.0, 2,1
71,67,0.7669,bicycle,bicycle,1111_cc_hum_1_bicycle4-oven3.png,7.0, 2,1
71,68,0.7170000000000001,chair,chair,1111_cc_hum_0_chair_40_n03376595_4469.JPEG,7.0, 2,0
71,69,0.5003,dog,dog,1111_cc_hum_1_dog1-bear1.png,7.0, 2,1
71,70,0.7669,dog,dog,1111_cc_hum_1_dog6-clock1.png,7.0, 2,1
71,71,0.5836,bird,bird,1111_cc_hum_1_bird9-dog2.png,7.0, 2,1
71,72,4.2833,elephant,airplane,1111_cc_hum_1_airplane2-dog1.png,7.0, 2,1
71,73,0.9174,elephant,airplane,1111_cc_hum_1_airplane2-bear1.png,7.0, 2,1
71,74,0.5675,car,car,1111_cc_hum_0_car_40_n04285008_3280.JPEG,7.0, 2,0
71,75,0.6168,clock,clock,1111_cc_hum_1_clock7-cat2.png,7.0, 2,1
71,76,0.4668,car,car,1111_cc_hum_1_car5-truck3.png,7.0, 2,1
71,77,4.6834,elephant,bicycle,1111_cc_hum_1_bicycle3-bird1.png,7.0, 2,1
71,78,1.1004,elephant,elephant,1111_cc_hum_0_elephant_40_n02504013_1916.JPEG,7.0, 2,0
71,79,0.617,bear,bear,1111_cc_hum_0_bear_40_n02134084_5027.JPEG,7.0, 2,0
71,80,3.8669,bottle,bottle,1111_cc_hum_0_bottle_40_n04560804_12278.JPEG,7.0, 2,0
71,81,1.1501,knife,knife,1111_cc_hum_0_knife_40_n03041632_11797.JPEG,7.0, 6,0
71,82,5.2998,bear,bear,1111_cc_hum_0_bear_40_n02134418_4041.JPEG,7.0, 6,0
71,83,0.7502,bottle,bottle,1111_cc_hum_0_bottle_40_n04591713_5754.JPEG,7.0, 6,0
71,84,0.5171,bear,bear,1111_cc_hum_1_bear8-dog1.png,7.0, 6,1
71,85,0.6501,elephant,elephant,1111_cc_hum_1_elephant3-keyboard2.png,7.0, 6,1
71,86,0.4838,bicycle,bicycle,1111_cc_hum_1_bicycle3-oven3.png,7.0, 6,1
71,87,0.5339,dog,dog,1111_cc_hum_1_dog4-oven1.png,7.0, 6,1
71,88,2.2669,bird,bird,1111_cc_hum_1_bird5-truck2.png,7.0, 6,1
71,89,0.4501,clock,clock,1111_cc_hum_1_clock3-cat1.png,7.0, 6,1
71,90,0.6336,chair,chair,1111_cc_hum_1_chair1-truck3.png,7.0, 6,1
71,91,2.0836,cat,cat,1111_cc_hum_1_cat5-bottle1.png,7.0, 6,1
71,92,0.7340000000000001,elephant,knife,1111_cc_hum_1_knife1-elephant1.png,7.0, 6,1
71,93,0.6674,chair,chair,1111_cc_hum_1_chair10-airplane2.png,7.0, 6,1
71,94,1.0171,bird,bird,1111_cc_hum_0_bird_40_n01843383_8077.JPEG,7.0, 6,0
71,95,0.6673,elephant,elephant,1111_cc_hum_0_elephant_40_n02504458_4336.JPEG,7.0, 6,0
71,96,0.9834,elephant,car,1111_cc_hum_1_car4-bird1.png,7.0, 6,1
71,97,0.9833,elephant,bottle,1111_cc_hum_1_bottle3-cat3.png,7.0, 6,1
71,98,0.6171,airplane,airplane,1111_cc_hum_0_airplane_40_n02690373_8789.JPEG,7.0, 6,0
71,99,0.4171,car,car,1111_cc_hum_0_car_40_n02814533_23512.JPEG,7.0, 6,0
71,100,2.2503,chair,chair,1111_cc_hum_0_chair_40_n04429376_9212.JPEG,7.0, 6,0
71,101,0.9342,cat,cat,1111_cc_hum_0_cat_40_n02123159_2684.JPEG,7.0, 7,0
71,102,1.4002,bicycle,bicycle,1111_cc_hum_0_bicycle_40_n03792782_33855.JPEG,7.0, 7,0
71,103,6.6332,keyboard,bottle,1111_cc_hum_0_bottle_40_n03937543_2357.JPEG,7.0, 7,0
71,104,1.1506,dog,dog,1111_cc_hum_1_dog1-boat3.png,7.0, 7,1
71,105,6.8662,elephant,clock,1111_cc_hum_1_clock1-bear1.png,7.0, 7,1
71,106,0.9003,elephant,knife,1111_cc_hum_1_knife2-dog1.png,7.0, 7,1
71,107,0.3838,elephant,car,1111_cc_hum_1_car10-elephant2.png,7.0, 7,1
71,108,0.3671,clock,clock,1111_cc_hum_1_clock3-car2.png,7.0, 7,1
71,109,0.6338,bottle,bottle,1111_cc_hum_1_bottle3-chair3.png,7.0, 7,1
71,110,1.067,car,keyboard,1111_cc_hum_1_keyboard9-airplane3.png,7.0, 7,1
71,111,0.4671,car,car,1111_cc_hum_1_car9-bicycle2.png,7.0, 7,1
71,112,0.55,keyboard,keyboard,1111_cc_hum_0_keyboard_40_n03085013_17762.JPEG,7.0, 7,0
71,113,0.6504,bicycle,bicycle,1111_cc_hum_1_bicycle10-boat3.png,7.0, 7,1
71,114,0.5501,clock,clock,1111_cc_hum_1_clock9-airplane1.png,7.0, 7,1
71,115,7.6829,elephant,knife,1111_cc_hum_1_knife6-oven3.png,7.0, 7,1
71,116,1.2837,elephant,dog,1111_cc_hum_0_dog_40_n02099712_5781.JPEG,7.0, 7,0
71,117,0.7338,elephant,dog,1111_cc_hum_1_dog7-keyboard3.png,7.0, 7,1
71,118,1.5005,boat,boat,1111_cc_hum_0_boat_40_n02951358_5718.JPEG,7.0, 7,0
71,119,2.5166,bird,bird,1111_cc_hum_0_bird_40_n01537544_2772.JPEG,7.0, 7,0
71,120,3.8,oven,oven,1111_cc_hum_0_oven_40_n04111531_10011.JPEG,7.0, 7,0
71,121,1.3167,truck,truck,1111_cc_hum_0_truck_40_n03417042_28078.JPEG,7.0, 8,0
71,122,1.2338,airplane,airplane,1111_cc_hum_0_airplane_40_n02690373_1071.JPEG,7.0, 8,0
71,123,3.4668,boat,clock,1111_cc_hum_0_clock_40_n03196217_5252.JPEG,7.0, 8,0
71,124,0.7172,car,car,1111_cc_hum_1_car2-cat3.png,7.0, 8,1
71,125,0.5503,elephant,elephant,1111_cc_hum_1_elephant6-car3.png,7.0, 8,1
71,126,0.3335,car,car,1111_cc_hum_0_car_40_n02814533_82925.JPEG,7.0, 8,0
71,127,0.9005,dog,dog,1111_cc_hum_1_dog1-bird1.png,7.0, 8,1
71,128,1.4167,chair,chair,1111_cc_hum_0_chair_40_n04099969_2398.JPEG,7.0, 8,0
71,129,4.0,elephant,chair,1111_cc_hum_1_chair8-keyboard3.png,7.0, 8,1
71,130,8.4491,elephant,boat,1111_cc_hum_1_boat7-bottle1.png,7.0, 8,1
71,131,0.5337,car,car,1111_cc_hum_1_car8-bicycle2.png,7.0, 8,1
71,132,0.6671,elephant,bird,1111_cc_hum_1_bird8-elephant1.png,7.0, 8,1
71,133,3.0835,bottle,oven,1111_cc_hum_1_oven3-bear2.png,7.0, 8,1
71,134,1.4335,car,keyboard,1111_cc_hum_1_keyboard4-truck3.png,7.0, 8,1
71,135,1.6498,bottle,dog,1111_cc_hum_1_dog2-bottle2.png,7.0, 8,1
71,136,1.3167,bottle,car,1111_cc_hum_1_car2-knife3.png,7.0, 8,1
71,137,1.6835,elephant,bottle,1111_cc_hum_1_bottle7-bear1.png,7.0, 8,1
71,138,1.6503,oven,oven,1111_cc_hum_0_oven_40_n04111531_7034.JPEG,7.0, 8,0
71,139,0.5169,clock,clock,1111_cc_hum_0_clock_40_n04548280_1438.JPEG,7.0, 8,0
71,140,2.217,keyboard,keyboard,1111_cc_hum_0_keyboard_40_n04505470_2115.JPEG,7.0, 8,0
71,141,3.8667,truck,truck,1111_cc_hum_0_truck_40_n03417042_14000.JPEG,7.0, 5,0
71,142,0.4834,bicycle,bicycle,1111_cc_hum_0_bicycle_40_n02835271_276.JPEG,7.0, 5,0
71,143,0.5339,bear,bear,1111_cc_hum_0_bear_40_n02133161_2137.JPEG,7.0, 5,0
71,144,0.9336,elephant,elephant,1111_cc_hum_1_elephant8-clock2.png,7.0, 5,1
71,145,1.1336,elephant,cat,1111_cc_hum_1_cat5-knife2.png,7.0, 5,1
71,146,0.3504,elephant,elephant,1111_cc_hum_0_elephant_40_n02504458_1848.JPEG,7.0, 5,0
71,147,0.784,keyboard,boat,1111_cc_hum_1_boat3-car3.png,7.0, 5,1
71,148,1.6336,truck,truck,1111_cc_hum_1_truck2-chair1.png,7.0, 5,1
71,149,21.3981,bottle,airplane,1111_cc_hum_1_airplane6-chair3.png,7.0, 5,1
71,150,2.6503,boat,boat,1111_cc_hum_0_boat_40_n02951358_4826.JPEG,7.0, 5,0
71,151,0.8006,cat,cat,1111_cc_hum_1_cat10-bird2.png,7.0, 5,1
71,152,2.6169,elephant,knife,1111_cc_hum_1_knife1-dog1.png,7.0, 5,1
71,153,0.9336,elephant,keyboard,1111_cc_hum_1_keyboard3-bicycle2.png,7.0, 5,1
71,154,1.3167,bird,bear,1111_cc_hum_1_bear10-knife2.png,7.0, 5,1
71,155,0.7836,oven,oven,1111_cc_hum_1_oven1-boat3.png,7.0, 5,1
71,156,0.5336,elephant,elephant,1111_cc_hum_1_elephant4-clock3.png,7.0, 5,1
71,157,2.2003,bird,bear,1111_cc_hum_1_bear10-clock1.png,7.0, 5,1
71,158,0.4839,cat,cat,1111_cc_hum_0_cat_40_n02123045_964.JPEG,7.0, 5,0
71,159,0.667,dog,dog,1111_cc_hum_0_dog_40_n02102318_11816.JPEG,7.0, 5,0
71,160,4.0333,keyboard,knife,1111_cc_hum_0_knife_40_n03041632_14224.JPEG,7.0, 5,0
71,161,2.6669,bottle,bottle,1111_cc_hum_0_bottle_40_n04579145_1302.JPEG,7.0, 9,0
71,162,3.4836,knife,knife,1111_cc_hum_0_knife_40_n03041632_26340.JPEG,7.0, 9,0
71,163,1.0668,boat,boat,1111_cc_hum_0_boat_40_n04273569_13091.JPEG,7.0, 9,0
71,164,3.2836,keyboard,keyboard,1111_cc_hum_1_keyboard9-truck3.png,7.0, 9,1
71,165,0.6669,elephant,elephant,1111_cc_hum_1_elephant7-knife2.png,7.0, 9,1
71,166,1.5003,bird,bird,1111_cc_hum_1_bird6-car3.png,7.0, 9,1
71,167,1.9835,knife,knife,1111_cc_hum_0_knife_40_n03041632_21723.JPEG,7.0, 9,0
71,168,4.9162,cat,keyboard,1111_cc_hum_1_keyboard4-cat2.png,7.0, 9,1
71,169,0.7667,clock,clock,1111_cc_hum_1_clock8-airplane2.png,7.0, 9,1
71,170,0.6839,airplane,airplane,1111_cc_hum_1_airplane1-chair2.png,7.0, 9,1
71,171,1.4833,elephant,bird,1111_cc_hum_1_bird10-elephant2.png,7.0, 9,1
71,172,4.1332,knife,chair,1111_cc_hum_1_chair5-cat3.png,7.0, 9,1
71,173,1.5004,bear,bear,1111_cc_hum_1_bear9-knife2.png,7.0, 9,1
71,174,0.9,elephant,bicycle,1111_cc_hum_1_bicycle3-elephant2.png,7.0, 9,1
71,175,0.6506,elephant,elephant,1111_cc_hum_1_elephant4-oven1.png,7.0, 9,1
71,176,1.0504,elephant,elephant,1111_cc_hum_1_elephant7-keyboard3.png,7.0, 9,1
71,177,0.6671,dog,dog,1111_cc_hum_0_dog_40_n02110806_16707.JPEG,7.0, 9,0
71,178,1.5669,keyboard,keyboard,1111_cc_hum_0_keyboard_40_n03085013_2122.JPEG,7.0, 9,0
71,179,1.8336,clock,clock,1111_cc_hum_0_clock_40_n03196217_5478.JPEG,7.0, 9,0
71,180,0.8506,chair,chair,1111_cc_hum_0_chair_40_n04429376_18127.JPEG,7.0, 9,0
71,181,0.3835,elephant,elephant,1111_cc_hum_0_elephant_40_n02504458_4.JPEG,7.0, 10,0
71,182,1.767,oven,oven,1111_cc_hum_0_oven_40_n04111531_9712.JPEG,7.0, 10,0
71,183,0.7170000000000001,airplane,airplane,1111_cc_hum_0_airplane_40_n02690373_19152.JPEG,7.0, 10,0
71,184,2.3668,boat,boat,1111_cc_hum_1_boat3-airplane2.png,7.0, 10,1
71,185,5.7664,bottle,boat,1111_cc_hum_1_boat9-bird1.png,7.0, 10,1
71,186,1.1838,elephant,boat,1111_cc_hum_1_boat2-bird1.png,7.0, 10,1
71,187,1.1668,elephant,boat,1111_cc_hum_1_boat6-dog1.png,7.0, 10,1
71,188,0.6671,dog,dog,1111_cc_hum_1_dog9-bottle1.png,7.0, 10,1
71,189,6.033,elephant,clock,1111_cc_hum_1_clock3-bear3.png,7.0, 10,1
71,190,1.6335,bear,bear,1111_cc_hum_0_bear_40_n02134418_4895.JPEG,7.0, 10,0
71,191,1.3503,clock,clock,1111_cc_hum_0_clock_40_n03196217_3943.JPEG,7.0, 10,0
71,192,0.6,bicycle,bicycle,1111_cc_hum_1_bicycle5-car3.png,7.0, 10,1
71,193,5.2996,keyboard,airplane,1111_cc_hum_1_airplane8-bicycle3.png,7.0, 10,1
71,194,0.5505,car,car,1111_cc_hum_1_car1-airplane1.png,7.0, 10,1
71,195,0.3672,elephant,elephant,1111_cc_hum_1_elephant1-boat2.png,7.0, 10,1
71,196,0.3671,cat,cat,1111_cc_hum_1_cat5-dog3.png,7.0, 10,1
71,197,3.8833,keyboard,keyboard,1111_cc_hum_1_keyboard7-knife1.png,7.0, 10,1
71,198,0.7337,cat,cat,1111_cc_hum_0_cat_40_n02124075_8351.JPEG,7.0, 10,0
71,199,0.4004,car,car,1111_cc_hum_0_car_40_n02814533_32461.JPEG,7.0, 10,0
71,200,0.6337,chair,chair,1111_cc_hum_0_chair_40_n04429376_19101.JPEG,7.0, 10,0
136,1,2.8498,oven,oven,1111_cc_hum_0_oven_40_n04111531_1054.JPEG,9.0, 3,0
136,2,0.7674,truck,truck,1111_cc_hum_0_truck_40_n03796401_4309.JPEG,9.0, 3,0
136,3,0.3006,cat,cat,1111_cc_hum_0_cat_40_n02124075_9716.JPEG,9.0, 3,0
136,4,0.7839,car,car,1111_cc_hum_1_car4-boat1.png,9.0, 3,1
136,5,3.9998,oven,clock,1111_cc_hum_1_clock9-cat1.png,9.0, 3,1
136,6,0.6001,chair,chair,1111_cc_hum_1_chair9-boat2.png,9.0, 3,1
136,7,0.4837,chair,chair,1111_cc_hum_1_chair7-truck3.png,9.0, 3,1
136,8,0.4672,dog,dog,1111_cc_hum_0_dog_40_n02088632_2814.JPEG,9.0, 3,0
136,9,0.6169,bicycle,bicycle,1111_cc_hum_1_bicycle1-clock3.png,9.0, 3,1
136,10,0.6001,bird,bird,1111_cc_hum_1_bird1-oven1.png,9.0, 3,1
136,11,0.3336,cat,cat,1111_cc_hum_1_cat1-airplane1.png,9.0, 3,1
136,12,8.5494,bottle,elephant,1111_cc_hum_1_elephant2-bird1.png,9.0, 3,1
136,13,1.7168,truck,truck,1111_cc_hum_1_truck2-boat3.png,9.0, 3,1
136,14,0.6169,elephant,elephant,1111_cc_hum_1_elephant5-bottle2.png,9.0, 3,1
136,15,0.4836,bottle,bottle,1111_cc_hum_1_bottle9-truck1.png,9.0, 3,1
136,16,0.8005,car,car,1111_cc_hum_1_car10-keyboard2.png,9.0, 3,1
136,17,0.5335,bear,bear,1111_cc_hum_0_bear_40_n02134084_2004.JPEG,9.0, 3,0
136,18,0.5672,keyboard,keyboard,1111_cc_hum_0_keyboard_40_n04505470_933.JPEG,9.0, 3,0
136,19,8.466000000000001,knife,knife,1111_cc_hum_0_knife_40_n03041632_24277.JPEG,9.0, 3,0
136,20,0.5505,bicycle,bicycle,1111_cc_hum_0_bicycle_40_n03792782_52601.JPEG,9.0, 3,0
136,21,0.6335,bicycle,bicycle,1111_cc_hum_0_bicycle_40_n03792782_14216.JPEG,9.0, 4,0
136,22,0.5505,bottle,bottle,1111_cc_hum_0_bottle_40_n04591713_2718.JPEG,9.0, 4,0
136,23,0.3333,elephant,elephant,1111_cc_hum_0_elephant_40_n02504458_4954.JPEG,9.0, 4,0
136,24,3.9335,bottle,chair,1111_cc_hum_1_chair4-oven2.png,9.0, 4,1
136,25,7.5825,truck,bear,1111_cc_hum_1_bear9-keyboard3.png,9.0, 4,1
136,26,0.6169,clock,clock,1111_cc_hum_1_clock4-airplane1.png,9.0, 4,1
136,27,0.417,truck,truck,1111_cc_hum_1_truck1-knife1.png,9.0, 4,1
136,28,2.4169,bird,boat,1111_cc_hum_1_boat6-car1.png,9.0, 4,1
136,29,0.4837,airplane,airplane,1111_cc_hum_0_airplane_40_n02690373_6999.JPEG,9.0, 4,0
136,30,0.8837,truck,truck,1111_cc_hum_1_truck2-bottle3.png,9.0, 4,1
136,31,9.949,car,clock,1111_cc_hum_1_clock6-chair3.png,9.0, 4,1
136,32,0.7172,dog,dog,1111_cc_hum_1_dog5-bear3.png,9.0, 4,1
136,33,4.1668,bottle,boat,1111_cc_hum_1_boat7-keyboard3.png,9.0, 4,1
136,34,0.5507,clock,clock,1111_cc_hum_1_clock2-knife1.png,9.0, 4,1
136,35,1.3671,elephant,elephant,1111_cc_hum_1_elephant10-knife3.png,9.0, 4,1
136,36,0.6671,clock,clock,1111_cc_hum_0_clock_40_n03196217_585.JPEG,9.0, 4,0
136,37,0.4675,chair,chair,1111_cc_hum_1_chair10-bird3.png,9.0, 4,1
136,38,0.4173,bird,bird,1111_cc_hum_0_bird_40_n02037110_11551.JPEG,9.0, 4,0
136,39,0.4002,airplane,airplane,1111_cc_hum_0_airplane_40_n02690373_6853.JPEG,9.0, 4,0
136,40,0.5174,bird,bird,1111_cc_hum_0_bird_40_n01530575_4260.JPEG,9.0, 4,0
136,41,0.6839,boat,boat,1111_cc_hum_0_boat_40_n04612504_30742.JPEG,9.0, 1,0
136,42,0.6666,cat,cat,1111_cc_hum_0_cat_40_n02123045_8774.JPEG,9.0, 1,0
136,43,0.4672,car,car,1111_cc_hum_0_car_40_n03100240_6805.JPEG,9.0, 1,0
136,44,1.0836,bear,elephant,1111_cc_hum_1_elephant8-dog1.png,9.0, 1,1
136,45,0.9671,car,knife,1111_cc_hum_1_knife7-car2.png,9.0, 1,1
136,46,0.6174,truck,truck,1111_cc_hum_1_truck5-car1.png,9.0, 1,1
136,47,2.3501,elephant,cat,1111_cc_hum_1_cat5-elephant2.png,9.0, 1,1
136,48,0.5672,boat,boat,1111_cc_hum_0_boat_40_n02951358_2853.JPEG,9.0, 1,0
136,49,0.4836,car,car,1111_cc_hum_1_car10-bicycle2.png,9.0, 1,1
136,50,0.5506,clock,clock,1111_cc_hum_0_clock_40_n04548280_2518.JPEG,9.0, 1,0
136,51,0.8337,bear,bear,1111_cc_hum_1_bear8-bottle1.png,9.0, 1,1
136,52,2.1999,car,cat,1111_cc_hum_1_cat5-airplane2.png,9.0, 1,1
136,53,2.7337,oven,knife,1111_cc_hum_1_knife10-chair1.png,9.0, 1,1
136,54,0.8505,keyboard,keyboard,1111_cc_hum_1_keyboard6-bicycle1.png,9.0, 1,1
136,55,0.5172,bear,bear,1111_cc_hum_1_bear8-elephant2.png,9.0, 1,1
136,56,3.7164,dog,boat,1111_cc_hum_1_boat7-cat3.png,9.0, 1,1
136,57,1.4736,bird,airplane,1111_cc_hum_1_airplane1-clock1.png,9.0, 1,1
136,58,0.8168,keyboard,keyboard,1111_cc_hum_0_keyboard_40_n03085013_19436.JPEG,9.0, 1,0
136,59,2.0667,oven,oven,1111_cc_hum_0_oven_40_n04111531_23215.JPEG,9.0, 1,0
136,60,0.3835,dog,dog,1111_cc_hum_0_dog_40_n02101388_2075.JPEG,9.0, 1,0
136,61,0.3670000000000001,elephant,elephant,1111_cc_hum_0_elephant_40_n02504013_1916.JPEG,9.0, 2,0
136,62,0.3667,chair,chair,1111_cc_hum_0_chair_40_n03376595_2566.JPEG,9.0, 2,0
136,63,1.2003,truck,truck,1111_cc_hum_0_truck_40_n03417042_12133.JPEG,9.0, 2,0
136,64,0.4836,car,car,1111_cc_hum_1_car5-truck3.png,9.0, 2,1
136,65,2.5501,elephant,airplane,1111_cc_hum_1_airplane2-bear1.png,9.0, 2,1
136,66,0.7006,car,car,1111_cc_hum_1_car8-chair1.png,9.0, 2,1
136,67,0.6505,dog,dog,1111_cc_hum_1_dog1-bear1.png,9.0, 2,1
136,68,3.3171,knife,airplane,1111_cc_hum_1_airplane4-elephant1.png,9.0, 2,1
136,69,0.5508,car,car,1111_cc_hum_0_car_40_n04285008_3280.JPEG,9.0, 2,0
136,70,0.6168,bird,bird,1111_cc_hum_1_bird9-dog2.png,9.0, 2,1
136,71,0.4006,clock,clock,1111_cc_hum_1_clock7-cat2.png,9.0, 2,1
136,72,2.5173,knife,knife,1111_cc_hum_0_knife_40_n03041632_24114.JPEG,9.0, 2,0
136,73,0.6667,dog,dog,1111_cc_hum_1_dog6-clock1.png,9.0, 2,1
136,74,0.8838,knife,knife,1111_cc_hum_1_knife8-bicycle1.png,9.0, 2,1
136,75,0.55,bicycle,bicycle,1111_cc_hum_1_bicycle4-oven3.png,9.0, 2,1
136,76,0.7836,bicycle,bicycle,1111_cc_hum_1_bicycle3-bird1.png,9.0, 2,1
136,77,4.6001,bottle,airplane,1111_cc_hum_1_airplane2-dog1.png,9.0, 2,1
136,78,1.3669,bottle,bottle,1111_cc_hum_0_bottle_40_n04560804_12278.JPEG,9.0, 2,0
136,79,0.4176,chair,chair,1111_cc_hum_0_chair_40_n03376595_4469.JPEG,9.0, 2,0
136,80,0.4339,bear,bear,1111_cc_hum_0_bear_40_n02134084_5027.JPEG,9.0, 2,0
136,81,0.3837,car,car,1111_cc_hum_0_car_40_n02814533_23512.JPEG,9.0, 6,0
136,82,0.3836,bear,bear,1111_cc_hum_0_bear_40_n02134418_4041.JPEG,9.0, 6,0
136,83,0.4838,bird,bird,1111_cc_hum_0_bird_40_n01843383_8077.JPEG,9.0, 6,0
136,84,0.5174,cat,cat,1111_cc_hum_1_cat5-bottle1.png,9.0, 6,1
136,85,0.4003,chair,chair,1111_cc_hum_1_chair10-airplane2.png,9.0, 6,1
136,86,0.4505,car,car,1111_cc_hum_1_car4-bird1.png,9.0, 6,1
136,87,0.4172,bicycle,bicycle,1111_cc_hum_1_bicycle3-oven3.png,9.0, 6,1
136,88,0.4339,clock,clock,1111_cc_hum_1_clock3-cat1.png,9.0, 6,1
136,89,1.4668,chair,bird,1111_cc_hum_1_bird5-truck2.png,9.0, 6,1
136,90,0.4504,elephant,elephant,1111_cc_hum_0_elephant_40_n02504458_4336.JPEG,9.0, 6,0
136,91,0.3671,bear,bear,1111_cc_hum_1_bear8-dog1.png,9.0, 6,1
136,92,0.4173,bottle,bottle,1111_cc_hum_0_bottle_40_n04591713_5754.JPEG,9.0, 6,0
136,93,0.4835,dog,dog,1111_cc_hum_1_dog4-oven1.png,9.0, 6,1
136,94,0.5171,knife,knife,1111_cc_hum_1_knife1-elephant1.png,9.0, 6,1
136,95,0.7338,bottle,bottle,1111_cc_hum_1_bottle3-cat3.png,9.0, 6,1
136,96,0.4001,chair,chair,1111_cc_hum_1_chair1-truck3.png,9.0, 6,1
136,97,0.4174,elephant,elephant,1111_cc_hum_1_elephant3-keyboard2.png,9.0, 6,1
136,98,0.5171,knife,knife,1111_cc_hum_0_knife_40_n03041632_11797.JPEG,9.0, 6,0
136,99,2.4668,chair,chair,1111_cc_hum_0_chair_40_n04429376_9212.JPEG,9.0, 6,0
136,100,0.4674,airplane,airplane,1111_cc_hum_0_airplane_40_n02690373_8789.JPEG,9.0, 6,0
136,101,0.5839,keyboard,keyboard,1111_cc_hum_0_keyboard_40_n03085013_17762.JPEG,9.0, 7,0
136,102,1.4336,bottle,bottle,1111_cc_hum_0_bottle_40_n03937543_2357.JPEG,9.0, 7,0
136,103,0.5503,boat,boat,1111_cc_hum_0_boat_40_n02951358_5718.JPEG,9.0, 7,0
136,104,4.683,bottle,dog,1111_cc_hum_1_dog7-keyboard3.png,9.0, 7,1
136,105,0.8174,dog,dog,1111_cc_hum_0_dog_40_n02099712_5781.JPEG,9.0, 7,0
136,106,0.4504,clock,clock,1111_cc_hum_1_clock3-car2.png,9.0, 7,1
136,107,0.6502,bottle,bottle,1111_cc_hum_1_bottle3-chair3.png,9.0, 7,1
136,108,0.6504,clock,clock,1111_cc_hum_1_clock9-airplane1.png,9.0, 7,1
136,109,2.0669,knife,car,1111_cc_hum_1_car10-elephant2.png,9.0, 7,1
136,110,0.4003,car,car,1111_cc_hum_1_car9-bicycle2.png,9.0, 7,1
136,111,1.2502,oven,oven,1111_cc_hum_0_oven_40_n04111531_10011.JPEG,9.0, 7,0
136,112,1.167,dog,dog,1111_cc_hum_1_dog1-boat3.png,9.0, 7,1
136,113,4.1661,bicycle,clock,1111_cc_hum_1_clock1-bear1.png,9.0, 7,1
136,114,0.5836,bicycle,bicycle,1111_cc_hum_1_bicycle10-boat3.png,9.0, 7,1
136,115,0.4838,keyboard,keyboard,1111_cc_hum_1_keyboard9-airplane3.png,9.0, 7,1
136,116,0.7173,knife,knife,1111_cc_hum_1_knife2-dog1.png,9.0, 7,1
136,117,0.5343,knife,knife,1111_cc_hum_1_knife6-oven3.png,9.0, 7,1
136,118,4.2001,cat,cat,1111_cc_hum_0_cat_40_n02123159_2684.JPEG,9.0, 7,0
136,119,0.517,bird,bird,1111_cc_hum_0_bird_40_n01537544_2772.JPEG,9.0, 7,0
136,120,0.6838,bicycle,bicycle,1111_cc_hum_0_bicycle_40_n03792782_33855.JPEG,9.0, 7,0
136,121,2.0838,oven,oven,1111_cc_hum_0_oven_40_n04111531_7034.JPEG,9.0, 8,0
136,122,0.4841,chair,chair,1111_cc_hum_0_chair_40_n04099969_2398.JPEG,9.0, 8,0
136,123,0.4506,clock,clock,1111_cc_hum_0_clock_40_n04548280_1438.JPEG,9.0, 8,0
136,124,19.7148,knife,boat,1111_cc_hum_1_boat7-bottle1.png,9.0, 8,1
136,125,0.7674,elephant,elephant,1111_cc_hum_1_elephant6-car3.png,9.0, 8,1
136,126,0.7669,dog,dog,1111_cc_hum_1_dog1-bird1.png,9.0, 8,1
136,127,1.6838,elephant,bottle,1111_cc_hum_1_bottle7-bear1.png,9.0, 8,1
136,128,0.7837,car,car,1111_cc_hum_0_car_40_n02814533_82925.JPEG,9.0, 8,0
136,129,0.2173,car,car,1111_cc_hum_1_car8-bicycle2.png,9.0, 8,1
136,130,0.6171,car,car,1111_cc_hum_1_car2-cat3.png,9.0, 8,1
136,131,3.4003,bottle,chair,1111_cc_hum_1_chair8-keyboard3.png,9.0, 8,1
136,132,5.8497,keyboard,keyboard,1111_cc_hum_1_keyboard4-truck3.png,9.0, 8,1
136,133,0.8835,truck,truck,1111_cc_hum_0_truck_40_n03417042_28078.JPEG,9.0, 8,0
136,134,0.6167,car,car,1111_cc_hum_1_car2-knife3.png,9.0, 8,1
136,135,2.1501,dog,dog,1111_cc_hum_1_dog2-bottle2.png,9.0, 8,1
136,136,0.6001,bird,bird,1111_cc_hum_1_bird8-elephant1.png,9.0, 8,1
136,137,2.417,clock,oven,1111_cc_hum_1_oven3-bear2.png,9.0, 8,1
136,138,0.9671,keyboard,keyboard,1111_cc_hum_0_keyboard_40_n04505470_2115.JPEG,9.0, 8,0
136,139,0.5003,airplane,airplane,1111_cc_hum_0_airplane_40_n02690373_1071.JPEG,9.0, 8,0
136,140,0.8338,clock,clock,1111_cc_hum_0_clock_40_n03196217_5252.JPEG,9.0, 8,0
136,141,0.4838,elephant,elephant,1111_cc_hum_0_elephant_40_n02504458_1848.JPEG,9.0, 5,0
136,142,1.567,dog,dog,1111_cc_hum_0_dog_40_n02102318_11816.JPEG,9.0, 5,0
136,143,0.3838,bear,bear,1111_cc_hum_0_bear_40_n02133161_2137.JPEG,9.0, 5,0
136,144,1.3337,dog,bear,1111_cc_hum_1_bear10-clock1.png,9.0, 5,1
136,145,1.0171,elephant,elephant,1111_cc_hum_1_elephant8-clock2.png,9.0, 5,1
136,146,6.9832,chair,boat,1111_cc_hum_1_boat3-car3.png,9.0, 5,1
136,147,0.6838,knife,knife,1111_cc_hum_1_knife1-dog1.png,9.0, 5,1
136,148,4.0832,oven,oven,1111_cc_hum_1_oven1-boat3.png,9.0, 5,1
136,149,2.2001,truck,truck,1111_cc_hum_1_truck2-chair1.png,9.0, 5,1
136,150,1.1836,truck,cat,1111_cc_hum_1_cat5-knife2.png,9.0, 5,1
136,151,0.7669,cat,cat,1111_cc_hum_0_cat_40_n02123045_964.JPEG,9.0, 5,0
136,152,0.7340000000000001,knife,keyboard,1111_cc_hum_1_keyboard3-bicycle2.png,9.0, 5,1
136,153,0.5507,elephant,elephant,1111_cc_hum_1_elephant4-clock3.png,9.0, 5,1
136,154,0.8173,truck,truck,1111_cc_hum_0_truck_40_n03417042_14000.JPEG,9.0, 5,0
136,155,0.9672,bird,bear,1111_cc_hum_1_bear10-knife2.png,9.0, 5,1
136,156,1.1003,cat,cat,1111_cc_hum_1_cat10-bird2.png,9.0, 5,1
136,157,3.8165,boat,airplane,1111_cc_hum_1_airplane6-chair3.png,9.0, 5,1
136,158,7.9995,chair,knife,1111_cc_hum_0_knife_40_n03041632_14224.JPEG,9.0, 5,0
136,159,0.8002,boat,boat,1111_cc_hum_0_boat_40_n02951358_4826.JPEG,9.0, 5,0
136,160,0.5173,bicycle,bicycle,1111_cc_hum_0_bicycle_40_n02835271_276.JPEG,9.0, 5,0
136,161,0.2667,cat,cat,1111_cc_hum_0_cat_40_n02124075_14094.JPEG,9.0, 11,0
136,162,0.6004,bicycle,bicycle,1111_cc_hum_0_bicycle_40_n03792782_692.JPEG,9.0, 11,0
136,163,0.3168,bicycle,bicycle,1111_cc_hum_0_bicycle_40_n03792782_3467.JPEG,9.0, 11,0
136,164,0.684,bottle,bottle,1111_cc_hum_1_bottle9-keyboard1.png,9.0, 11,1
136,165,3.6501,keyboard,oven,1111_cc_hum_1_oven2-truck3.png,9.0, 11,1
136,166,0.5004,truck,truck,1111_cc_hum_0_truck_40_n03417042_16389.JPEG,9.0, 11,0
136,167,0.3336,truck,truck,1111_cc_hum_0_truck_40_n03417042_19905.JPEG,9.0, 11,0
136,168,0.4836,truck,truck,1111_cc_hum_1_truck10-bicycle1.png,9.0, 11,1
136,169,0.5337,knife,knife,1111_cc_hum_1_knife6-boat3.png,9.0, 11,1
136,170,6.3163,bird,airplane,1111_cc_hum_1_airplane5-bicycle1.png,9.0, 11,1
136,171,5.0999,bottle,bird,1111_cc_hum_1_bird8-keyboard2.png,9.0, 11,1
136,172,4.3501,boat,cat,1111_cc_hum_1_cat5-chair3.png,9.0, 11,1
136,173,5.2833,keyboard,chair,1111_cc_hum_1_chair5-bird1.png,9.0, 11,1
136,174,0.4837,bicycle,bicycle,1111_cc_hum_1_bicycle9-chair1.png,9.0, 11,1
136,175,0.7165,elephant,elephant,1111_cc_hum_1_elephant1-bottle1.png,9.0, 11,1
136,176,2.2504,keyboard,boat,1111_cc_hum_1_boat3-clock3.png,9.0, 11,1
136,177,5.533,bicycle,clock,1111_cc_hum_1_clock1-boat3.png,9.0, 11,1
136,178,0.3338,elephant,elephant,1111_cc_hum_0_elephant_40_n02504013_6660.JPEG,9.0, 11,0
136,179,2.8171,oven,oven,1111_cc_hum_0_oven_40_n04111531_9490.JPEG,9.0, 11,0
136,180,0.8501,boat,boat,1111_cc_hum_0_boat_40_n04612504_8942.JPEG,9.0, 11,0
136,181,4.3999,bottle,bottle,1111_cc_hum_0_bottle_40_n04560804_32398.JPEG,9.0, 12,0
136,182,0.3504,car,car,1111_cc_hum_0_car_40_n03100240_6954.JPEG,9.0, 12,0
136,183,0.5336,bird,bird,1111_cc_hum_0_bird_40_n02033041_6633.JPEG,9.0, 12,0
136,184,2.2505,car,cat,1111_cc_hum_1_cat10-elephant3.png,9.0, 12,1
136,185,2.2002,bottle,keyboard,1111_cc_hum_1_keyboard10-oven3.png,9.0, 12,1
136,186,0.6669,keyboard,keyboard,1111_cc_hum_0_keyboard_40_n04505470_1430.JPEG,9.0, 12,0
136,187,0.5837,bird,bird,1111_cc_hum_1_bird10-clock1.png,9.0, 12,1
136,188,4.6498,cat,elephant,1111_cc_hum_1_elephant2-bottle3.png,9.0, 12,1
136,189,1.4505,knife,knife,1111_cc_hum_1_knife2-bear2.png,9.0, 12,1
136,190,0.8835,knife,knife,1111_cc_hum_1_knife2-car3.png,9.0, 12,1
136,191,0.7173,bicycle,bicycle,1111_cc_hum_1_bicycle7-clock3.png,9.0, 12,1
136,192,0.6337,airplane,airplane,1111_cc_hum_0_airplane_40_n02690373_4728.JPEG,9.0, 12,0
136,193,0.4837,bicycle,bicycle,1111_cc_hum_1_bicycle1-dog3.png,9.0, 12,1
136,194,0.4169,elephant,elephant,1111_cc_hum_1_elephant3-cat2.png,9.0, 12,1
136,195,0.4006,bird,bird,1111_cc_hum_1_bird9-bear3.png,9.0, 12,1
136,196,0.8007,bicycle,bicycle,1111_cc_hum_1_bicycle4-truck3.png,9.0, 12,1
136,197,1.0836,bear,bear,1111_cc_hum_1_bear4-oven2.png,9.0, 12,1
136,198,0.3337,dog,dog,1111_cc_hum_0_dog_40_n02108000_324.JPEG,9.0, 12,0
136,199,0.4338,bird,bird,1111_cc_hum_0_bird_40_n01532829_22520.JPEG,9.0, 12,0
136,200,0.3670000000000001,bear,bear,1111_cc_hum_0_bear_40_n02132136_6787.JPEG,9.0, 12,0
136,201,0.7841,chair,chair,1111_cc_hum_0_chair_40_n04429376_18127.JPEG,9.0, 9,0
136,202,1.0667,knife,knife,1111_cc_hum_0_knife_40_n03041632_26340.JPEG,9.0, 9,0
136,203,0.8170000000000001,boat,boat,1111_cc_hum_0_boat_40_n04273569_13091.JPEG,9.0, 9,0
136,204,0.3505,keyboard,keyboard,1111_cc_hum_0_keyboard_40_n03085013_2122.JPEG,9.0, 9,0
136,205,1.1336,bicycle,bicycle,1111_cc_hum_1_bicycle3-elephant2.png,9.0, 9,1
136,206,1.9504,bird,elephant,1111_cc_hum_1_elephant7-knife2.png,9.0, 9,1
136,207,0.6507,keyboard,keyboard,1111_cc_hum_1_keyboard9-truck3.png,9.0, 9,1
136,208,0.7005,bird,bird,1111_cc_hum_1_bird10-elephant2.png,9.0, 9,1
136,209,0.4169,elephant,elephant,1111_cc_hum_1_elephant4-oven1.png,9.0, 9,1
